sep=,
DeviceTag:,DOT10
FirmwareVersion:,3.0.0
AppVersion:,2023.6.0
SyncStatus:,Synced
OutputRate:,60Hz
FilterProfile:,Dynamic
Measurement Mode:,Custom modes - custom mode1
StartTime: ,2026-04-28_16:00:38_040 GMT+2
© Movella Technologies B. V. 2005-2026

PacketCounter,SampleTimeFine,Euler_X,Euler_Y,Euler_Z,FreeAcc_X,FreeAcc_Y,FreeAcc_Z,Gyr_X,Gyr_Y,Gyr_Z
1,405361050,-58.902061,29.204830,-13.944609,-0.245091,0.266665,0.187599,2.535292,-1.397275,2.088901
2,405377717,-58.871540,29.221813,-13.881974,-0.246497,0.177323,0.323937,1.501384,-3.196222,2.786591
3,405394384,-58.837326,29.233952,-13.777323,-0.294016,0.122463,0.354642,0.490041,-5.228859,3.675929
4,405411051,-58.805531,29.236929,-13.644797,-0.312301,0.040345,0.337296,-0.473003,-6.758746,3.962164
5,405427718,-58.790951,29.227438,-13.493380,-0.293281,0.070270,0.261456,-2.056751,-7.990306,3.836687
6,405444385,-58.824234,29.205658,-13.343771,-0.222973,0.082939,0.105229,-4.874713,-8.293587,3.154276
7,405461052,-58.905376,29.178995,-13.205677,-0.106976,0.047407,-0.057252,-7.406645,-7.936841,2.587108
8,405477719,-59.004528,29.154978,-13.090096,0.023059,-0.000464,-0.163654,-7.824772,-6.846174,2.102887
9,405494386,-59.082626,29.138216,-12.997168,0.077201,-0.033639,-0.241383,-5.897889,-5.608952,1.857209
10,405511053,-59.120335,29.129675,-12.918037,0.103702,-0.029511,-0.278528,-3.070643,-4.736428,1.904516
11,405527720,-59.116314,29.130621,-12.844678,0.153167,-0.058745,-0.338058,-0.399942,-4.187537,2.237404
12,405544387,-59.087429,29.146654,-12.780377,0.205796,-0.072432,-0.399073,1.358146,-3.311850,2.772031
13,405561054,-59.048203,29.176529,-12.725456,0.217127,-0.087388,-0.283521,2.249525,-2.462648,3.234270
14,405577721,-59.002800,29.214205,-12.677086,0.214638,-0.097245,-0.173232,2.811960,-1.923283,3.459181
15,405594388,-58.948269,29.259121,-12.632570,0.183446,-0.128597,0.048215,3.468831,-1.524135,3.728173
16,405611055,-58.875008,29.289579,-12.587246,0.112591,-0.187603,0.210612,4.569606,-2.000851,3.009921
17,405627722,-58.796181,29.288763,-12.542396,0.073208,-0.211162,0.314837,4.913848,-2.949175,1.391500
18,405644389,-58.726372,29.254656,-12.500587,0.042654,-0.230782,0.282234,4.464070,-3.847873,-0.395127
19,405661056,-58.677780,29.193417,-12.465260,0.063709,-0.199862,0.202317,3.385161,-4.402158,-1.958719
20,405677723,-58.658463,29.109737,-12.440787,0.033541,-0.215150,0.056336,1.949082,-4.619814,-3.402097
21,405694390,-58.650543,29.010799,-12.428102,0.014978,-0.232129,0.017688,1.608395,-4.572879,-4.502752
22,405711057,-58.643600,28.904388,-12.424820,-0.013113,-0.176060,-0.024810,1.825859,-4.383756,-5.140329
23,405727724,-58.630543,28.793001,-12.423718,-0.023668,-0.146395,-0.098195,2.255820,-4.443779,-5.453867
24,405744391,-58.618931,28.675051,-12.426681,-0.003427,-0.103704,-0.113555,2.287362,-4.465050,-5.902205
25,405761058,-58.629257,28.557190,-12.440726,0.020262,-0.061286,-0.172647,1.291610,-3.964789,-6.200126
26,405777725,-58.663750,28.446671,-12.467095,0.027664,-0.080418,-0.167190,0.191314,-3.179914,-6.163538
27,405794392,-58.701694,28.348614,-12.502147,0.008080,-0.131062,-0.087789,0.229432,-2.392969,-5.765662
28,405811059,-58.704300,28.265957,-12.538222,-0.054903,-0.088797,-0.005513,2.377121,-1.860724,-5.006092
29,405827726,-58.673649,28.191668,-12.574192,-0.079775,0.002273,0.040842,4.367677,-1.604316,-4.574941
30,405844393,-58.637630,28.122381,-12.614789,-0.097981,0.101007,0.001718,4.819792,-1.241934,-4.446212
31,405861060,-58.619991,28.056959,-12.658281,-0.113863,0.126271,-0.000250,3.793715,-0.991762,-4.329635
32,405877727,-58.616051,27.988314,-12.702827,-0.133140,0.100204,-0.013474,2.999676,-1.043923,-4.523869
33,405894394,-58.600224,27.913836,-12.745152,-0.143058,0.087001,0.007907,3.645821,-1.326162,-4.762733
34,405911061,-58.557877,27.830574,-12.770983,-0.131844,0.122870,0.057069,4.770552,-2.349543,-4.756868
35,405927728,-58.480381,27.742994,-12.772738,-0.131609,0.154573,0.113732,6.203493,-3.578658,-4.310925
36,405944395,-58.347580,27.647354,-12.739845,-0.199720,0.117019,0.361962,8.557616,-5.407797,-3.754547
37,405961062,-58.122719,27.527748,-12.658290,-0.350456,0.030875,0.677573,12.727115,-8.385041,-3.596705
38,405977729,-57.761932,27.368578,-12.509898,-0.365270,-0.083803,0.950521,19.048628,-12.678080,-3.683958
39,405994396,-57.251659,27.156620,-12.304329,-0.384204,-0.051826,1.015890,26.471748,-16.991859,-4.621649
40,406011063,-56.557404,26.874214,-12.033920,-0.386573,-0.367289,1.563788,35.789677,-22.278246,-6.086461
41,406027730,-55.473305,26.437117,-11.576163,-0.895517,-0.512232,2.803390,54.229523,-35.929398,-7.811583
42,406044397,-53.955120,25.816280,-10.964037,-0.413938,-0.594526,2.653503,76.424088,-49.351097,-11.144734
43,406061064,-52.116005,25.019186,-10.272131,-0.704243,-0.343349,2.746490,94.034645,-59.636856,-15.455378
44,406077731,-49.993652,24.010256,-9.425492,-0.860055,-0.500848,2.858341,107.770042,-74.915497,-17.820827
45,406094398,-47.620701,22.773315,-8.429991,-0.972650,-0.812306,3.105453,120.167450,-91.052483,-19.536026
46,406111065,-44.886543,21.278357,-7.320248,-1.035760,-1.145288,3.260095,140.579590,-107.537987,-21.912455
47,406127732,-41.977238,19.529667,-6.178750,-1.138417,-0.860557,3.027408,152.179367,-121.252686,-25.313772
48,406144399,-39.116287,17.526958,-5.092937,-1.563405,-0.692096,3.363515,152.452301,-132.394547,-30.976357
49,406161066,-36.423248,15.246825,-4.125268,-1.813024,-0.492772,3.441696,146.701004,-143.192535,-39.571243
50,406177733,-34.023621,12.705479,-3.318303,-2.049272,-0.148282,3.419514,133.779236,-152.598907,-49.377228
51,406194400,-32.192780,9.984571,-2.729055,-2.092576,0.506567,2.894524,104.399612,-156.621033,-59.955257
52,406211067,-31.030687,7.141317,-2.374959,-2.376324,0.806705,2.802216,68.069588,-157.232269,-71.354202
53,406227734,-30.488605,4.146694,-2.233411,-2.925866,0.540073,2.902722,33.202301,-159.660034,-84.471016
54,406244401,-30.377226,0.991644,-2.241885,-3.036004,0.444371,2.177526,8.220330,-163.906219,-96.171532
55,406261068,-30.694443,-2.260926,-2.378484,-2.313927,0.620474,0.213157,-17.604885,-164.871918,-106.066628
56,406277735,-31.360111,-5.473495,-2.664951,-1.592056,0.138320,-1.116831,-39.578304,-157.284180,-113.912537
57,406294402,-32.269249,-8.559046,-3.096688,-0.831506,-0.143575,-2.417136,-56.192383,-144.711548,-119.318871
58,406311069,-33.201439,-11.462721,-3.625057,-0.343397,-0.605339,-2.933862,-59.925377,-130.616837,-120.344284
59,406327736,-33.975105,-14.151594,-4.236071,0.653178,-0.601518,-3.811943,-53.034901,-115.561882,-118.910805
60,406344403,-34.609798,-16.558567,-4.907475,1.191376,-0.585866,-3.943167,-47.239780,-98.368065,-113.336723
61,406361070,-35.136639,-18.607588,-5.639271,2.096365,-0.169293,-4.411646,-43.367634,-77.868156,-104.505241
62,406377737,-35.768501,-20.214188,-6.456495,3.561126,0.567513,-5.158126,-52.701664,-52.632328,-93.450363
63,406394404,-36.659554,-21.336124,-7.336085,4.136068,1.273659,-4.875942,-70.677231,-26.084370,-79.438705
64,406411071,-37.747272,-22.043989,-8.235681,3.632376,1.181228,-3.671320,-83.708214,-4.425808,-65.469559
65,406427738,-38.833321,-22.449718,-9.064030,2.764815,0.463325,-2.515775,-82.480309,8.478733,-51.019814
66,406444405,-39.610348,-22.656380,-9.814608,2.554260,-0.384053,-2.163140,-62.395119,15.778455,-39.880352
67,406461072,-39.921535,-22.785902,-10.490337,2.307791,-1.157477,-1.849083,-32.833740,17.039164,-33.530323
68,406477739,-39.849148,-22.929104,-11.106421,2.342924,-1.164549,-1.186506,-8.512944,14.342926,-31.451195
69,406494406,-39.558434,-23.081255,-11.726946,2.256432,-1.001536,-0.296734,4.395907,13.968003,-31.997404
70,406511073,-39.202312,-23.268864,-12.392065,1.997437,-0.754049,0.643538,7.168980,13.679137,-35.289593
71,406527740,-38.763374,-23.549269,-13.171771,1.722501,-0.646480,1.556131,9.256014,13.036297,-43.742802
72,406544407,-38.234940,-23.931866,-14.115347,1.532830,-1.146402,1.772603,10.422484,13.403670,-54.628815
73,406561074,-37.591469,-24.400517,-15.232302,1.779199,-1.625516,1.346967,12.680580,14.499611,-65.293800
74,406577741,-36.822166,-24.893768,-16.510773,2.429575,-1.404932,0.890526,15.680395,17.707491,-73.197472
75,406594408,-36.007889,-25.355404,-17.866125,3.336383,-0.886552,0.688038,15.842511,20.541265,-75.458237
76,406611075,-35.171215,-25.699881,-19.250290,3.609109,-0.696158,0.509769,15.926521,25.935938,-72.726311
77,406627742,-34.297802,-25.899942,-20.590536,2.819283,-0.815616,0.418944,18.918537,30.521219,-66.081535
78,406644409,-33.247772,-26.015623,-21.804848,2.283354,-1.233026,0.296623,32.623718,29.788162,-58.050613
79,406661076,-31.996967,-26.046642,-22.910376,2.451254,-0.852449,-0.151794,47.451702,29.710928,-50.938091
80,406677743,-30.809143,-25.945705,-23.888498,3.002212,-0.423134,-0.840523,47.059814,31.805950,-41.594292
81,406694410,-29.821756,-25.670898,-24.707529,3.123157,-0.433547,-1.423786,39.362438,35.719872,-29.586218
82,406711077,-28.863144,-25.243340,-25.306122,2.498597,-0.980278,-1.546420,43.589165,37.415455,-15.409138
83,406727744,-27.843927,-24.700127,-25.674368,1.895023,-0.718573,-1.186353,53.337044,37.361298,-1.853862
84,406744411,-26.959286,-24.047752,-25.882837,1.342554,-0.255760,-0.870176,49.428123,39.165058,8.199209
85,406761078,-26.431517,-23.269318,-26.017582,1.004366,0.026140,-0.768671,29.930193,44.230171,14.663824
86,406777745,-26.315155,-22.420828,-26.155333,0.950366,-0.041822,-0.657172,5.282578,48.169716,16.094168
87,406794412,-26.353298,-21.491823,-26.325644,0.668297,-0.667779,-0.316142,-4.600911,53.335907,16.538513
88,406811079,-26.177061,-20.600330,-26.358238,0.319207,-0.892667,0.069250,11.379411,47.952126,22.341364
89,406827746,-25.774105,-19.743288,-26.152493,0.811386,0.180349,0.284657,29.943338,40.332417,33.244591
90,406844413,-25.497650,-18.868250,-25.773842,0.945941,1.015216,0.134591,25.605955,37.238602,42.355320
91,406861080,-25.414774,-17.938786,-25.347172,0.797576,0.471695,-0.105225,14.559284,39.093937,46.213474
92,406877747,-25.263660,-16.954453,-24.886093,0.737713,-0.193697,-0.516313,18.864956,41.261745,49.442738
93,406894414,-24.821114,-15.957597,-24.293406,0.778058,-0.414652,-0.401892,38.130451,38.933296,56.531227
94,406911081,-24.212107,-14.920758,-23.514627,0.484805,0.345827,-0.019209,50.483654,37.093254,67.109344
95,406927748,-23.765558,-13.849770,-22.647053,-0.115471,0.931963,0.353774,41.228680,37.391983,72.507698
96,406944415,-23.420300,-12.787124,-21.793320,-0.653128,0.079885,0.393229,34.018513,37.660263,71.513161
97,406961082,-22.880766,-11.744569,-20.881739,0.003200,-0.643547,-0.062527,45.494431,35.684307,74.044930
98,406977749,-22.079208,-10.679480,-19.869888,0.190125,-0.560246,-0.381342,61.402042,35.459507,79.772781
99,406994416,-21.321161,-9.566785,-18.809334,-0.088347,0.064199,0.213157,58.174683,38.050259,83.196526
100,407011083,-20.870720,-8.470164,-17.762789,-0.303672,0.357688,0.379907,38.377323,38.249321,81.845955
101,407027750,-20.674822,-7.377335,-16.728350,0.125789,0.349648,0.432919,21.821333,38.685253,81.037193
102,407044417,-20.585890,-6.258137,-15.595680,0.101668,-0.101692,0.109211,14.915319,38.248253,87.117172
103,407061084,-20.389051,-5.131123,-14.204343,-0.032940,-1.686002,-0.501970,21.606432,33.446758,101.785034
104,407077751,-19.592886,-4.012067,-12.398266,-0.043180,-1.817258,-1.396833,57.921284,25.344542,124.767982
105,407094418,-18.035797,-2.962527,-10.270650,-0.582501,-0.340304,-1.202128,102.703636,17.690416,141.222198
106,407111085,-16.049078,-2.029874,-7.927649,-1.469876,0.712333,-0.197704,126.836998,11.514729,150.977066
107,407127752,-14.103220,-1.121949,-5.533883,-1.962650,1.734923,-0.230584,122.214859,14.428129,153.090363
108,407144419,-12.728004,-0.080910,-3.191005,-2.333499,1.822050,-0.960569,85.507317,27.308508,151.505753
109,407161086,-11.634686,0.922226,-0.783426,-3.318514,2.122134,-0.362862,66.058250,27.508425,154.175858
110,407177753,-10.408765,1.611727,1.622013,-3.206646,1.736606,0.002523,71.879929,12.168919,149.810455
111,407194420,-9.034863,1.947775,4.087136,-2.797468,2.293736,-0.226983,79.353188,-5.948753,149.379135
112,407211087,-8.146339,2.189795,6.458226,-2.216908,2.895812,-1.082804,49.688702,-7.743487,142.997269
113,407227754,-8.234350,2.493188,8.530594,-3.198861,1.027297,-0.795671,-8.845277,-0.553906,125.815491
114,407244421,-8.773499,2.782193,9.899508,-3.272601,-3.065009,-0.635075,-34.614689,4.136744,83.956764
115,407261088,-8.989002,3.027316,10.264540,-2.283715,-4.745274,-1.892604,-12.520382,10.264172,24.120249
116,407277755,-8.587053,3.132137,9.898303,-2.449383,-0.897526,-1.159727,26.829346,8.670582,-20.493307
117,407294422,-8.558779,3.223023,9.194460,-2.064511,3.672571,0.390441,5.570791,10.774402,-40.655258
118,407311089,-9.428475,3.331461,8.649710,-2.201762,4.248168,0.345194,-48.789967,10.620531,-30.988298
119,407327756,-10.383312,3.472921,8.328720,-2.151103,1.924423,-0.019989,-54.636879,10.757532,-17.257235
120,407344423,-10.700904,3.488845,7.984072,-2.437724,0.720220,0.406065,-16.296862,3.800492,-19.900230
121,407361090,-10.634040,3.385492,7.539033,-2.098551,2.140923,0.860000,7.112967,-2.081550,-27.128124
122,407377757,-10.725829,3.251864,6.893116,-2.488511,2.277333,1.190226,-1.770360,-1.634202,-39.293095
123,407394424,-10.988003,3.067738,5.950953,-3.087799,1.240278,1.051661,-11.127020,-1.149345,-57.307117
124,407411091,-11.165948,2.746833,4.738946,-3.428731,0.776085,0.866276,-5.504369,-5.879500,-74.771927
125,407427758,-11.237309,2.243618,3.272234,-3.787656,0.509575,1.031766,1.031231,-13.482706,-91.913567
126,407444425,-11.349605,1.542832,1.523133,-4.628993,0.782308,1.017424,-1.789243,-21.643950,-110.905968
127,407461092,-11.661897,0.644773,-0.533319,-5.180156,0.915894,0.014359,-14.899101,-29.154991,-131.455856
128,407477759,-11.892092,-0.453194,-2.872872,-5.501834,-0.289152,0.056980,-12.094043,-36.810589,-150.695847
129,407494426,-11.575505,-1.801566,-5.372646,-6.800529,-0.540835,0.318322,17.524672,-49.694153,-163.123123
130,407511093,-10.667912,-3.506520,-7.942882,-7.531335,0.004549,-0.627523,48.791706,-71.652229,-170.748184
131,407527760,-9.374542,-5.488270,-10.641083,-7.303979,0.806685,-1.712129,66.380646,-90.011475,-179.503036
132,407544427,-8.140344,-7.718788,-13.492349,-5.764275,1.535402,-1.409547,55.854004,-107.415520,-188.231613
133,407561094,-7.168759,-10.001657,-16.493021,-3.623128,1.364075,-0.832926,32.045921,-113.085220,-194.452667
134,407577761,-6.418663,-12.216350,-19.518810,-2.645958,1.088669,-0.493654,11.516266,-111.913300,-192.520447
135,407594428,-5.897608,-14.319612,-22.467272,-2.389920,0.741108,-0.469085,-7.837919,-108.043800,-184.639633
136,407611095,-5.434480,-16.399652,-25.248491,-1.480850,0.286729,-1.148311,-14.905795,-109.360405,-172.360260
137,407627762,-4.718288,-18.442360,-27.894470,-0.920318,-0.087401,-1.784074,-3.052548,-109.736610,-161.644669
138,407644429,-3.702702,-20.484324,-30.467619,-0.419294,0.543014,-2.037375,10.998691,-112.558777,-154.090561
139,407661096,-2.755873,-22.501959,-32.981842,-0.019974,1.422519,-1.689504,3.049992,-114.018105,-146.878174
140,407677763,-2.118126,-24.411003,-35.366924,0.852493,1.415775,-1.367307,-17.181984,-109.919518,-135.950409
141,407694430,-1.670856,-26.297298,-37.566772,1.101719,0.774655,-1.872960,-28.165804,-110.235039,-122.870995
142,407711097,-1.160985,-28.005602,-39.570004,1.077642,0.149540,-2.194450,-22.740486,-100.885498,-109.365776
143,407727764,-0.474578,-29.718584,-41.323936,1.174009,0.354158,-2.281743,-8.096239,-102.513084,-93.535568
144,407744431,0.236517,-31.455351,-42.803162,2.020745,0.397161,-1.679837,-0.981383,-105.105629,-76.533524
145,407761098,0.757649,-33.092518,-44.009754,2.774049,0.484706,-1.028919,-5.873902,-99.812767,-60.261299
146,407777765,0.956819,-34.592438,-44.897648,3.187063,-0.135150,-0.862899,-16.206421,-91.699028,-42.796707
147,407794432,0.890030,-35.887486,-45.758804,3.386186,-0.573660,-0.188885,-20.209404,-79.159775,-23.345594
148,407811099,0.462100,-36.951050,-46.170208,3.522548,-0.430283,0.115670,-26.857582,-64.910133,-2.441150
149,407827766,-0.495078,-37.707363,-45.721668,4.155891,-0.724088,-0.403344,-39.601540,-46.413143,21.515156
150,407844433,-1.906108,-38.080299,-44.836864,4.032468,-1.076852,-1.139655,-50.549541,-24.266361,41.551788
151,407861100,-3.500969,-38.230286,-43.626045,2.866979,-0.902043,-0.512557,-49.308582,-12.689277,56.778511
152,407877767,-5.246377,-38.251362,-42.072342,2.558315,-0.937890,0.242586,-45.522274,-7.841527,73.054321
153,407894434,-7.189418,-38.094616,-40.225410,2.515018,-1.013442,0.114658,-46.592403,-1.077384,87.773659
154,407911101,-9.276388,-37.758465,-38.170067,3.040078,-1.281552,0.067773,-47.917522,5.047371,99.313469
155,407927768,-11.577890,-37.298256,-35.924309,2.726481,-0.574216,-0.073545,-54.506519,6.840679,110.251114
156,407944435,-14.150540,-36.830109,-33.497982,1.984511,0.290943,0.308585,-65.111992,0.549909,119.667412
157,407961102,-16.985687,-36.379280,-30.865906,1.955565,0.365543,0.736727,-74.433205,-8.932789,129.551956
158,407977769,-19.815151,-35.926590,-28.170633,1.915794,-0.236304,0.803097,-72.864288,-16.404852,132.644318
159,407994436,-22.476797,-35.537788,-25.411674,1.725903,-2.122449,0.765172,-61.523140,-27.674908,133.917328
160,408011103,-24.671434,-35.045700,-22.738157,1.886577,-2.148426,1.087837,-37.503666,-26.250595,131.987488
161,408027770,-26.636368,-34.447250,-20.227215,2.545938,-0.842401,1.094971,-30.529530,-22.168312,127.313309
162,408044437,-28.661301,-33.922184,-17.784412,2.159677,-0.684283,1.162689,-37.648701,-29.291368,122.203041
163,408061104,-30.459536,-33.280590,-15.736225,2.269584,-1.040400,1.597505,-38.391426,-17.940502,108.216377
164,408077771,-31.828918,-32.629158,-14.192376,1.543778,-0.503661,1.928955,-30.284683,-7.666943,86.933624
165,408094438,-32.881035,-32.075951,-13.024255,2.009610,0.224927,1.931529,-24.132589,-4.563882,67.982124
166,408111105,-33.754360,-31.664436,-12.118983,2.077015,0.393506,1.888654,-22.232590,-5.619298,52.317093
167,408127772,-34.383896,-31.422108,-11.451493,1.748438,0.246288,2.035654,-15.334229,-7.987467,36.634060
168,408144439,-34.658905,-31.364523,-11.003502,1.187587,0.260168,2.480928,-1.014956,-11.063914,21.083870
169,408161106,-34.618526,-31.519455,-10.728217,0.976099,0.618368,2.455314,12.523830,-16.565771,6.537172
170,408177773,-34.463760,-31.892677,-10.543130,1.210186,0.744754,2.053672,16.608854,-24.710003,-4.684115
171,408194440,-34.259079,-32.450241,-10.441236,1.461229,0.535250,1.665712,17.016941,-31.441273,-14.374818
172,408211107,-33.937389,-33.180412,-10.423611,1.465346,0.206607,1.829710,21.355844,-37.680290,-23.586473
173,408227774,-33.412029,-34.047802,-10.551874,1.766908,0.134846,1.776426,28.743069,-40.659225,-33.946758
174,408244441,-32.697918,-35.017754,-10.862088,2.230115,0.470243,1.640198,33.775082,-41.313454,-44.345577
175,408261108,-31.842899,-36.000317,-11.384410,2.934035,0.166032,1.317143,34.580585,-37.123825,-52.789959
176,408277775,-30.789646,-36.892887,-12.138751,3.354418,-0.119150,1.062334,37.787197,-27.719315,-58.675171
177,408294442,-29.536755,-37.742302,-13.033779,3.323044,-0.659875,0.990463,44.099449,-23.488911,-62.258816
178,408311109,-28.005428,-38.495884,-14.088100,3.095880,-1.008705,1.100780,54.314621,-16.557009,-65.104462
179,408327776,-26.312181,-39.151112,-15.275961,2.834980,-0.809811,1.046749,58.397018,-10.502874,-67.060570
180,408344443,-24.630882,-39.662384,-16.573860,2.786507,-0.915981,0.917409,52.926151,-2.678363,-67.220573
181,408361110,-22.976469,-40.011227,-18.017653,2.565330,-1.136128,0.741379,45.255360,6.842937,-69.011635
182,408377777,-21.359543,-40.184906,-19.582954,2.361036,-1.320264,0.762475,38.009502,16.610205,-70.161797
183,408394444,-19.725544,-40.160069,-21.220251,2.040792,-1.294091,0.766345,36.157173,26.894554,-69.461296
184,408411111,-18.181946,-39.952053,-22.844177,1.609795,-0.880444,0.887362,31.398973,35.194290,-66.175087
185,408427778,-16.793640,-39.568150,-24.393867,1.203265,-1.075273,0.740860,25.315462,42.620266,-60.945110
186,408444445,-15.507689,-39.062737,-25.824099,1.178073,-1.120806,0.677753,24.271738,46.770832,-55.027039
187,408461112,-14.371167,-38.416538,-27.107269,1.369479,-0.924740,0.573588,21.497269,52.122032,-47.718948
188,408477779,-13.443543,-37.646523,-28.200819,1.205232,-0.632967,0.335732,16.717970,56.454422,-38.752602
189,408494446,-12.786880,-36.772583,-29.118706,0.984957,-0.510903,0.030926,7.578593,60.209026,-30.508625
190,408511113,-12.368774,-35.783451,-29.874479,0.794941,-0.713787,-0.115592,-0.264353,65.076416,-22.444794
191,408527780,-11.983230,-34.692001,-30.488731,0.049419,-1.244242,-0.375637,3.347595,69.558159,-15.302248
192,408544447,-11.520844,-33.573845,-30.912203,-0.073658,-0.920902,-0.329687,14.965157,69.164528,-6.619630
193,408561114,-11.186574,-32.405258,-31.126186,0.226919,-0.133357,-0.182996,14.544902,70.061783,3.550862
194,408577781,-11.158877,-31.149559,-31.163452,0.384156,0.340760,-0.461288,1.963194,73.482002,13.040355
195,408594448,-11.307051,-29.840960,-31.099340,-0.347385,-0.112413,-0.867995,-5.459516,75.564682,18.852882
196,408611115,-11.270596,-28.562057,-30.934139,-1.079499,-1.108567,-0.979232,8.498657,72.755325,23.810047
197,408627782,-10.895982,-27.336199,-30.644190,-1.138021,-1.142231,-1.147973,32.108219,68.424171,29.518637
198,408644449,-10.477306,-26.143997,-30.219646,-0.421212,-0.047212,-0.958130,38.060490,65.272072,35.912006
199,408661116,-10.379494,-24.900425,-29.695217,0.293812,0.610430,-0.777460,20.906433,67.439384,41.720840
200,408677783,-10.601774,-23.555685,-29.146355,0.098034,0.537695,-1.164397,1.657044,73.064415,44.509686
201,408694450,-10.859316,-22.186228,-28.528402,-0.517912,-0.565488,-1.511701,0.437368,73.564346,49.155628
202,408711117,-10.901135,-20.832897,-27.782120,-0.897227,-0.679488,-1.733424,15.389576,71.071228,56.528004
203,408727784,-10.861774,-19.533508,-26.908873,-0.906316,0.050190,-1.316806,21.921682,66.471413,63.295200
204,408744451,-10.986237,-18.295717,-25.948341,-0.396087,0.812119,-0.686964,12.699692,61.780716,67.886360
205,408761118,-11.215778,-17.064455,-24.955835,-0.391673,0.412872,-0.686514,5.798809,60.757305,70.180946
206,408777785,-11.251922,-15.868478,-23.909145,-0.915346,-0.345362,-1.087770,17.117435,57.837292,73.331902
207,408794452,-11.034509,-14.724683,-22.722588,-1.221303,-0.371317,-1.252343,33.313091,53.246426,80.918472
208,408811119,-10.694418,-13.701596,-21.362074,-1.161445,0.113044,-1.338468,41.937675,44.551651,89.556885
209,408827786,-10.304766,-12.766796,-19.924706,-0.685585,0.184368,-1.146203,44.613594,39.029854,93.035202
210,408844453,-9.873816,-11.877037,-18.391657,-0.278094,0.379805,-1.058700,46.980129,35.993755,98.095070
211,408861120,-9.428121,-10.894978,-16.801268,0.232535,0.816973,-1.234798,47.074429,41.581226,102.367126
212,408877787,-9.158214,-9.815136,-15.082232,0.643392,1.873786,-1.530675,36.229023,46.727890,110.859695
213,408894454,-9.380103,-8.570796,-13.094539,0.896940,2.134721,-2.147333,7.236589,53.890854,128.489014
214,408911121,-9.761099,-7.169295,-10.723324,0.695982,2.441218,-3.186505,-1.883455,58.651169,153.226212
215,408927788,-10.030174,-5.632605,-7.923703,0.058765,2.690586,-3.966639,4.073524,61.298237,180.568726
216,408944455,-10.099313,-3.882152,-4.656314,-0.776954,3.279081,-3.940160,13.595277,68.411453,210.995468
217,408961122,-10.042158,-1.874256,-1.107801,-3.409811,3.107393,-2.260342,15.595953,80.563255,230.715729
218,408977789,-9.869359,0.185577,2.472962,-6.651953,1.933768,0.171394,15.000974,83.705971,233.237442
219,408994456,-9.615566,1.938157,5.560500,-9.232574,-2.349740,4.269249,13.257851,71.410065,200.613602
220,409011123,-9.018437,2.886897,7.158605,-8.898800,-12.084581,5.971258,33.262981,39.776447,103.999130
221,409027790,-6.897978,2.795417,7.259336,-5.379920,-8.186207,1.118821,128.437164,-7.182387,5.438150
222,409044457,-5.512367,2.326190,6.412740,-2.696971,5.697749,1.674114,86.938164,-23.431288,-53.290607
223,409061124,-6.775206,2.202540,5.376753,-1.665371,7.856615,2.244686,-71.793892,-1.662868,-62.345600
224,409077791,-9.187482,2.243294,4.452228,-1.612302,1.772575,0.207475,-141.086243,9.182351,-54.349815
225,409094458,-10.447554,2.202170,3.486950,-2.332999,-3.868150,-0.419770,-71.867714,6.496772,-57.240112
226,409111125,-9.975804,1.860461,2.463653,-1.694871,-1.193491,0.044034,31.980087,-10.245049,-63.826302
227,409127792,-9.201921,1.387605,1.425445,-0.987692,2.930354,0.731740,49.700081,-18.552412,-65.928535
228,409144459,-9.005103,0.906044,0.370133,-1.399544,3.789170,0.927212,14.571652,-19.466265,-66.882767
229,409161126,-9.334658,0.423674,-0.822504,-2.015494,2.318243,0.671899,-17.457399,-18.125841,-75.053032
230,409177793,-9.685933,-0.131920,-2.219802,-3.087728,0.291527,0.808780,-19.382977,-19.986891,-87.999733
231,409194460,-9.666322,-0.952482,-3.798016,-4.039797,-0.653916,0.958096,1.760335,-33.586575,-101.426018
232,409211127,-9.283310,-2.055197,-5.498442,-4.330838,0.276348,0.654716,21.784468,-49.448254,-111.310249
233,409227794,-9.014326,-3.302971,-7.364263,-4.392202,1.706026,0.155867,12.390803,-57.121548,-122.131363
234,409244461,-9.151073,-4.604958,-9.415879,-4.672252,1.500897,-0.256041,-15.205658,-58.752487,-133.426880
235,409261128,-9.406985,-5.982779,-11.620690,-5.166963,0.680984,-0.387411,-26.070559,-61.357525,-143.171860
236,409277795,-9.406201,-7.547527,-13.910203,-5.649329,0.497519,-0.193885,-14.644532,-71.347488,-149.774841
237,409294462,-9.139991,-9.309067,-16.256844,-6.043813,1.694825,-0.335671,-3.171182,-82.900551,-154.351273
238,409311129,-8.943658,-11.275588,-18.622135,-4.789443,2.709394,-0.420195,-12.079795,-95.627075,-156.316452
239,409327796,-8.967365,-13.310466,-21.012487,-2.948919,2.084772,-0.551792,-30.457272,-99.849625,-157.310852
240,409344463,-9.054173,-15.307700,-23.369160,-2.283220,1.438698,-1.176147,-38.650414,-97.965858,-153.971390
241,409361130,-9.065024,-17.290928,-25.596485,-1.767409,1.253960,-1.674259,-36.652485,-98.387436,-145.296570
242,409377797,-8.959852,-19.286459,-27.651077,-1.215101,1.373537,-1.742039,-30.865828,-100.999382,-134.248581
243,409394464,-8.758066,-21.365686,-29.500618,-0.128865,1.303435,-1.200980,-24.933506,-108.324715,-121.929794
244,409411131,-8.575469,-23.446379,-31.174231,0.804080,0.834436,-1.121861,-25.811583,-110.514809,-110.480537
245,409427798,-8.374160,-25.409357,-32.671463,1.541297,0.197025,-1.123942,-23.564611,-105.525757,-98.149559
246,409444465,-8.144613,-27.202341,-34.030678,2.072792,0.059562,-1.226206,-20.859951,-97.045677,-87.693085
247,409461132,-7.953498,-28.781139,-35.238777,2.430716,0.351975,-1.704810,-21.046881,-85.911575,-76.528381
248,409477799,-8.002808,-30.127306,-36.258228,2.358313,0.253848,-2.448272,-31.527952,-73.670631,-63.835789
249,409494466,-8.191019,-31.211199,-37.115421,2.529192,-1.181847,-2.934663,-36.021194,-59.223969,-52.831978
250,409511133,-8.267834,-31.889963,-37.927475,2.230063,-2.104716,-2.897819,-28.596155,-35.423477,-46.794506
251,409527800,-8.200366,-32.186413,-38.746880,2.164756,-2.053578,-2.413493,-20.524019,-12.684991,-43.664333
252,409544467,-8.181528,-32.043091,-39.546432,1.892312,-1.248755,-0.830722,-22.864288,13.260520,-38.865780
253,409561134,-8.534904,-31.503250,-40.187077,1.877915,0.321251,0.599314,-39.927437,35.762966,-27.489321
254,409577801,-9.495555,-30.677683,-40.553410,2.239501,0.860797,0.877639,-67.476143,50.845215,-10.695047
255,409594468,-10.912697,-29.702030,-40.566032,1.210884,-0.307648,0.033039,-83.896637,56.707539,9.865750
256,409611135,-12.167682,-28.759693,-40.288548,0.226348,-1.503605,-0.106794,-65.656471,51.473404,25.689632
257,409627802,-13.093098,-27.945551,-39.797359,0.302260,-1.876204,0.143287,-40.014751,40.981815,36.130066
258,409644469,-13.966865,-27.223761,-39.106445,0.724128,-1.597777,0.672601,-31.714491,32.503445,45.990429
259,409661136,-15.022561,-26.623306,-38.199097,0.524892,-0.191004,2.184825,-37.173225,21.731255,56.146595
260,409677803,-16.366827,-26.223583,-37.062832,0.579369,0.032723,2.470128,-48.800549,5.575095,65.402260
261,409694470,-17.901613,-26.060352,-35.691616,0.498574,-0.782049,1.705274,-54.324284,-13.394245,73.598572
262,409711137,-19.488005,-26.101788,-34.125877,0.437095,-1.854864,0.675123,-52.366512,-30.391392,79.264778
263,409727804,-21.025599,-26.276237,-32.460358,0.540958,-2.137881,0.519575,-46.636421,-41.850857,80.635704
264,409744471,-22.569073,-26.550659,-30.796774,1.381308,-0.943300,1.084061,-46.690598,-49.457642,77.020622
265,409761138,-24.460951,-26.810188,-29.204868,2.580102,0.069374,1.292745,-69.109886,-49.300858,72.177086
266,409777805,-26.974924,-26.960047,-27.719995,2.949887,-0.081354,0.758527,-109.038994,-43.550060,67.831772
267,409794472,-30.011251,-26.962322,-26.370676,2.757869,-0.974724,0.110079,-143.966431,-35.502060,63.499981
268,409811139,-33.091278,-26.909641,-25.250685,2.523952,-2.277186,-0.298061,-152.856079,-29.603611,52.860394
269,409827806,-35.700680,-26.890923,-24.146233,2.178540,-2.566128,0.031140,-125.076996,-33.394329,49.554440
270,409844473,-37.658203,-26.970404,-22.803127,2.792871,-0.611943,0.469780,-79.445305,-47.666180,54.930779
271,409861140,-39.334103,-27.108725,-21.242100,3.237764,0.558576,0.366272,-56.469296,-59.341167,60.292511
272,409877807,-41.053246,-27.147825,-19.650236,2.643001,-0.291686,0.029743,-58.092514,-57.568188,63.595749
273,409894474,-42.816818,-27.103968,-18.229380,2.257112,-0.994152,0.260601,-65.445648,-49.658722,58.386616
274,409911141,-44.368542,-26.937908,-16.969944,1.767775,-0.482357,0.798339,-57.271873,-40.107006,55.815414
275,409927808,-45.501793,-26.766479,-15.879909,1.362236,-0.425982,1.064054,-36.954842,-34.833393,48.767094
276,409944475,-46.353340,-26.634695,-14.915605,1.017444,-0.022523,1.137133,-23.597782,-32.536907,41.834679
277,409961142,-47.186005,-26.645540,-13.935758,0.982635,0.360589,1.249908,-22.100651,-39.633156,35.723289
278,409977809,-47.965416,-26.776024,-13.112986,1.146475,0.630126,1.483940,-23.078894,-38.731560,24.178282
279,409994476,-48.553478,-26.959097,-12.568419,1.023264,0.748207,1.693265,-19.024193,-29.959997,11.421789
280,410011143,-48.861889,-27.205151,-12.226129,0.764144,0.706028,1.883914,-7.662952,-24.384214,1.193241
281,410027810,-48.813858,-27.491163,-12.065969,0.735120,0.647930,2.006652,8.787469,-18.623432,-7.080361
282,410044477,-48.462212,-27.827797,-12.083468,0.778697,0.872698,1.873014,22.097969,-13.551912,-15.549544
283,410061144,-47.881004,-28.242119,-12.255570,0.755425,1.046860,1.917727,31.505159,-10.691548,-24.373945
284,410077811,-47.115780,-28.760151,-12.571553,0.790742,1.117311,1.879442,38.350163,-9.621681,-33.939480
285,410094478,-46.159985,-29.353930,-13.062638,0.804674,0.777041,2.074064,44.518215,-6.644703,-43.348743
286,410111145,-44.911083,-30.004715,-13.741917,0.780132,0.372519,2.058419,56.230202,-2.988219,-52.431042
287,410127812,-43.394386,-30.754559,-14.552845,1.121664,0.102596,1.657353,67.871269,-3.948058,-61.213932
288,410144479,-41.673820,-31.560043,-15.530312,1.414355,-0.061776,1.430197,74.363754,-2.590255,-69.406235
289,410161146,-39.854904,-32.372002,-16.691071,1.756870,0.120606,1.290420,73.735786,0.777447,-76.308403
290,410177813,-38.011314,-33.162045,-18.043707,2.248149,-0.019926,1.068765,68.161652,5.111990,-82.616837
291,410194480,-36.135410,-33.875507,-19.561087,2.870635,-0.598962,0.839149,63.749367,10.705425,-86.102646
292,410211147,-34.129658,-34.416721,-21.193377,3.295141,-1.129433,0.332034,66.842140,19.195183,-84.701912
293,410227814,-32.032913,-34.698238,-22.875919,3.701907,-1.281691,-0.018285,70.009644,30.343987,-78.601822
294,410244481,-29.992823,-34.663120,-24.497484,3.598961,-1.493721,-0.429221,68.515335,42.152546,-67.197578
295,410261148,-28.024939,-34.323368,-25.958197,3.201687,-1.872965,-0.748202,69.911034,51.992134,-52.990929
296,410277815,-26.042374,-33.757881,-27.194557,2.447382,-1.544911,-0.555717,78.898415,57.307056,-39.032608
297,410294482,-24.179478,-33.046680,-28.177402,2.299018,-0.763791,-0.048703,80.780655,58.686310,-26.166149
298,410311149,-22.650301,-32.220924,-28.996817,2.237662,-0.194879,0.051781,66.705971,61.082684,-18.000160
299,410327816,-21.611994,-31.328125,-29.729673,1.898023,-0.402013,0.146914,40.610783,62.871700,-14.135347
300,410344483,-20.920191,-30.388714,-30.401678,1.261976,-1.060845,0.409011,22.292057,64.253410,-11.499650
301,410361150,-20.265356,-29.441404,-30.991505,0.559579,-1.537784,0.449963,23.105539,63.173744,-8.407883
302,410377817,-19.465090,-28.533792,-31.411638,0.446110,-1.621785,0.365287,37.262501,57.894283,-1.922855
303,410394484,-18.646574,-27.636879,-31.654222,0.854487,-0.958509,0.193460,43.724720,54.248558,5.740756
304,410411151,-18.010359,-26.729183,-31.764000,1.061570,-0.845842,0.057085,36.629227,52.736835,11.871414
305,410427818,-17.521923,-25.770887,-31.761053,1.122113,-1.281879,-0.088904,30.850899,53.906265,18.001986
306,410444485,-16.967789,-24.757318,-31.598524,0.857876,-1.825909,-0.677631,38.876553,54.670536,26.755936
307,410461152,-16.212194,-23.693336,-31.268955,0.637849,-1.756189,-0.922063,54.917160,55.244877,35.809750
308,410477819,-15.502168,-22.572662,-30.784470,0.477123,-0.767487,-0.830765,55.492512,56.595039,44.385582
309,410494486,-15.026693,-21.364565,-30.254934,-0.112040,-0.490043,-1.142073,41.886765,61.392132,47.802277
310,410511153,-14.703709,-20.079601,-29.744541,-0.555562,-0.959719,-1.367635,31.688946,66.391525,47.753510
311,410527820,-14.261343,-18.734465,-29.227545,-0.874601,-1.472720,-1.523822,38.327637,70.048798,48.798630
312,410544487,-13.552012,-17.413998,-28.617311,-1.037953,-1.104105,-1.506985,55.400612,67.764732,53.106705
313,410561154,-12.749080,-16.140278,-27.859648,-1.019995,-0.382469,-1.060479,62.783802,63.741451,60.041939
314,410577821,-12.053081,-14.884299,-27.042639,-1.399444,0.247487,-0.771485,56.360409,62.679554,62.583050
315,410594488,-11.514827,-13.657306,-26.229338,-1.651767,0.071422,-0.711261,45.818142,61.627369,61.593349
316,410611155,-10.928571,-12.487072,-25.415670,-1.831546,-0.331962,-0.460586,47.714409,58.830578,60.565739
317,410627822,-10.171844,-11.457130,-24.496983,-1.371778,-0.114692,-0.232775,58.338402,50.088326,64.576454
318,410644489,-9.355580,-10.516085,-23.397598,-0.247192,0.272846,-0.865623,63.052147,43.868420,73.637733
319,410661156,-8.566011,-9.591989,-22.222277,-0.398584,0.262472,-1.500846,61.191044,43.156693,77.467575
320,410677823,-7.700668,-8.707131,-20.964880,-0.700534,-0.147850,-1.015488,65.424881,41.219818,81.487144
321,410694490,-6.682380,-7.941472,-19.634666,-1.144968,0.135104,-0.230116,74.163116,34.889694,84.339470
322,410711157,-5.565390,-7.229048,-18.250084,-0.673069,0.329749,-0.248789,79.498482,32.910164,86.672531
323,410727824,-4.549737,-6.534942,-16.700642,-0.493777,0.967598,-0.477324,73.594200,32.536907,95.840530
324,410744491,-3.810804,-5.744592,-15.012491,-0.187278,1.407244,-0.892857,56.685734,39.137672,104.127380
325,410761158,-3.260784,-4.857386,-13.175237,-0.464112,1.434135,-1.370842,44.701416,45.540703,113.069649
326,410777825,-2.586353,-4.001686,-11.189027,-0.808463,1.404668,-1.497494,51.183495,44.389366,121.515747
327,410794492,-1.762070,-3.206834,-8.906049,-0.191885,2.532740,-1.826663,59.577721,41.638538,138.650009
328,410811159,-1.108779,-2.238259,-6.256584,-0.162852,4.022635,-2.377071,48.253113,53.278408,160.428162
329,410827826,-0.823050,-1.097435,-3.169545,-2.475427,4.734050,-1.349120,24.033867,64.468063,186.511841
330,410844493,-0.747620,0.004468,0.120351,-4.728635,3.343599,-0.541652,7.899915,62.539925,198.517776
331,410861160,-0.594590,0.978042,3.212793,-6.361105,0.224098,0.366551,9.073409,55.362385,186.455704
332,410877827,-0.536146,1.719067,5.281941,-7.841470,-7.201859,2.063322,2.069870,42.348080,124.785095
333,410894494,0.100162,2.055793,5.724520,-6.155522,-8.097781,-0.188006,38.811935,19.192968,26.831205
334,410911161,1.062171,2.089081,5.015790,-2.444473,0.741004,0.303683,60.791859,0.633830,-42.318962
335,410927828,0.573052,2.290566,4.017668,-1.001667,5.343753,1.613162,-25.524920,10.293927,-59.812206
336,410944495,-0.733811,2.518267,3.411659,-0.661863,3.211456,0.035280,-75.369370,12.772453,-36.108753
337,410961162,-1.211156,2.629118,3.177612,-1.030923,-0.451964,-1.665329,-26.505711,5.946668,-13.709218
338,410977829,-0.461094,2.573955,3.071340,-0.559398,0.166584,-0.932264,46.797726,-4.161059,-6.213793
339,410994496,0.364418,2.547203,2.904928,0.147830,2.546629,0.667338,51.480556,-2.543398,-9.773165
340,411011163,0.636761,2.649494,2.596093,0.074743,2.588926,1.482357,18.676378,5.029604,-18.354670
341,411027830,0.472862,2.811352,2.178785,-0.584753,1.894301,1.231920,-7.153543,8.523743,-24.891907
342,411044497,0.152985,2.940122,1.651640,-1.102705,0.931735,1.073301,-16.123920,6.606954,-31.417194
343,411061164,-0.099807,2.965135,0.982830,-1.501974,0.036051,0.799043,-11.621679,0.532286,-39.859745
344,411077831,-0.222598,2.852838,0.162660,-1.585443,-0.095555,0.776216,-3.390600,-7.553903,-48.952961
345,411094498,-0.385510,2.623583,-0.866017,-1.901617,0.193518,0.996154,-5.345318,-14.387115,-61.511959
346,411111165,-0.711808,2.291612,-2.149801,-2.655385,0.178662,1.081009,-14.792776,-20.145161,-76.935982
347,411127832,-1.229404,1.839074,-3.734773,-3.663633,0.324274,1.029572,-26.143282,-26.510788,-95.278343
348,411144499,-1.864989,1.221741,-5.659449,-4.314265,0.238784,1.053990,-33.561543,-34.891487,-116.197723
349,411161166,-2.555944,0.396399,-7.865483,-4.895382,0.615544,1.489659,-38.093449,-45.371578,-133.965836
350,411177833,-3.310584,-0.702327,-10.252705,-5.058731,1.022693,1.580916,-44.159668,-59.511623,-146.234177
351,411194500,-4.168336,-2.061571,-12.731206,-5.209715,1.576534,0.980647,-53.543850,-72.701073,-153.492828
352,411211167,-5.062836,-3.697545,-15.274195,-5.776186,1.605558,-0.198525,-59.821693,-86.605873,-159.623047
353,411227834,-5.874105,-5.673207,-17.899038,-5.789198,1.799185,-0.237696,-60.021919,-104.081924,-167.391785
354,411244501,-6.576091,-7.942903,-20.546415,-3.898630,1.152920,-0.055746,-59.425426,-119.328560,-171.414627
355,411261168,-7.165898,-10.287189,-23.176434,-3.375010,1.107862,-0.357546,-58.859451,-122.067696,-171.383087
356,411277835,-7.628562,-12.696731,-25.685602,-2.710279,1.137355,-1.062841,-56.222424,-125.444824,-164.787369
357,411294502,-7.873903,-15.115483,-28.042873,-2.063023,1.626823,-1.697686,-47.180439,-126.358681,-155.489731
358,411311169,-8.061060,-17.559851,-30.285749,-1.222047,1.494153,-2.197080,-47.549679,-128.429352,-148.100189
359,411327836,-8.104538,-19.946547,-32.446819,-0.103650,0.533720,-2.208227,-42.760654,-125.601883,-141.578384
360,411344503,-8.010160,-22.135176,-34.589283,-0.028660,0.944445,-2.248061,-38.955799,-114.289574,-137.083542
361,411361170,-7.914126,-24.137915,-36.635380,0.156559,1.704781,-2.058572,-40.938019,-104.454735,-128.332092
362,411377837,-8.078755,-25.976313,-38.522533,1.240313,2.323557,-1.443945,-56.290329,-96.051605,-116.802490
363,411394504,-8.630005,-27.569857,-40.278122,1.976985,1.220140,-1.637198,-78.981888,-82.024620,-106.817406
364,411411171,-9.220390,-28.873825,-41.979431,1.731190,-0.978092,-1.993427,-82.152321,-64.424217,-100.868324
365,411427838,-9.428376,-29.956135,-43.550022,0.568781,-1.467294,-2.385300,-57.221233,-51.857502,-91.402237
366,411444505,-9.294885,-30.854946,-44.871052,1.105900,-1.276889,-2.344828,-30.563959,-43.162102,-76.104057
367,411461172,-9.198933,-31.531019,-45.897812,1.918005,-1.077471,-2.372546,-24.605232,-32.633102,-58.414551
368,411477839,-9.457311,-31.940428,-46.590759,2.582021,-1.303256,-2.611612,-35.827297,-19.564552,-38.754673
369,411494506,-10.115584,-32.009930,-47.013386,2.468698,-1.610645,-2.180985,-51.381470,-1.498846,-21.785851
370,411511173,-10.990135,-31.784719,-47.212738,1.338495,-0.768210,-0.895931,-57.252583,14.110076,-7.387357
371,411527840,-12.140197,-31.471920,-47.069176,1.268016,0.177232,0.193566,-62.946541,15.889189,11.069715
372,411544507,-13.812898,-31.076675,-46.557076,2.135571,0.310494,0.211429,-82.871315,16.188435,31.041842
373,411561174,-16.096113,-30.573381,-45.676903,1.895769,-0.662634,-0.605679,-108.394295,16.453451,51.737194
374,411577841,-18.386286,-30.125523,-44.490772,-0.346222,-2.079709,0.044612,-99.916008,6.449223,66.752190
375,411594508,-20.066708,-29.945629,-42.967911,-1.461799,-1.680174,1.807915,-53.556274,-16.859997,78.368446
376,411611175,-21.273863,-30.020256,-41.102898,0.953824,-0.785122,2.464187,-14.971968,-39.402145,89.220734
377,411627842,-22.728315,-30.115555,-38.961548,3.708021,0.057638,1.880486,-21.361284,-47.949558,101.065208
378,411644509,-25.017338,-30.063070,-36.620232,4.567309,0.512526,1.475416,-65.379379,-47.302773,112.549149
379,411661176,-28.021450,-29.901533,-34.150429,3.464999,-0.171297,1.421008,-104.660408,-49.624882,119.320290
380,411677843,-31.300684,-29.727705,-31.585865,2.016839,-0.832599,1.772867,-118.722870,-57.983265,121.323997
381,411694510,-34.301048,-29.725142,-28.894268,0.748356,-1.477652,1.850321,-98.420494,-76.810829,118.116417
382,411711177,-36.670128,-29.781097,-26.316715,1.309293,-2.282446,1.390950,-63.882034,-81.634834,107.526299
383,411727844,-38.494694,-29.906233,-23.853226,1.577997,-2.271502,0.620552,-34.413124,-85.090897,97.169945
384,411744511,-40.060295,-30.019646,-21.501310,2.474941,-1.737942,0.580690,-21.951756,-83.603638,90.478531
385,411761178,-41.436729,-30.036642,-19.469522,2.469406,-0.797765,0.621283,-20.079453,-70.597420,79.448006
386,411777845,-42.637520,-30.001812,-17.740446,2.242929,-0.670760,0.832380,-18.649551,-59.523373,68.277908
387,411794512,-43.561142,-29.882771,-16.230951,2.349323,-0.879963,1.012592,-8.716672,-49.329617,62.352905
388,411811179,-44.063099,-29.618372,-15.065725,2.497672,-0.875574,1.251031,6.068087,-31.489635,54.957520
389,411827846,-44.224380,-29.226219,-14.245988,2.416024,-0.425763,1.291775,15.974992,-13.862595,47.311913
390,411844513,-44.255001,-28.832794,-13.771180,2.032770,0.170939,1.373984,13.479381,-1.373616,34.506081
391,411861180,-44.189854,-28.502888,-13.618979,1.160090,0.354091,1.822645,9.780720,7.690887,19.747101
392,411877847,-43.978973,-28.289757,-13.714390,0.785797,0.134547,1.854456,11.421437,11.784663,5.482103
393,411894514,-43.630432,-28.208679,-13.975311,0.869159,-0.172415,1.410416,14.993896,12.152534,-6.379159
394,411911181,-43.177128,-28.246496,-14.321893,1.296851,-0.405395,0.735999,18.851585,10.038517,-14.661561
395,411927848,-42.665268,-28.351072,-14.743057,1.573657,-0.088035,0.341630,20.224627,9.656025,-20.354219
396,411944515,-42.173290,-28.538097,-15.179208,1.534405,0.264676,0.278186,18.544298,6.338793,-24.336123
397,411961182,-41.629116,-28.799694,-15.622434,1.491008,0.281959,0.638589,21.380932,3.006086,-27.626513
398,411977849,-40.876297,-29.058659,-16.134735,1.181496,-0.135539,0.818850,31.789307,5.162665,-30.242527
399,411994516,-39.834080,-29.348839,-16.739017,1.274058,-0.405543,0.809677,46.329060,6.333540,-35.159115
400,412011183,-38.524979,-29.654902,-17.585442,1.475057,0.067233,1.249645,55.023083,12.799129,-45.627285
401,412027850,-37.056114,-29.949062,-18.742811,1.682922,0.719729,1.798764,55.102436,22.089310,-58.193604
402,412044517,-35.547920,-30.229744,-20.117268,1.635368,0.798686,2.104839,50.626888,27.786160,-67.228973
403,412061184,-33.881638,-30.548176,-21.587540,1.128546,-0.020345,2.225167,56.827576,26.746140,-73.175652
404,412077851,-31.750248,-30.961906,-23.069220,0.746742,-0.888369,2.091627,83.893456,19.660141,-77.404549
405,412094518,-29.121113,-31.543358,-24.538370,1.102198,-0.815840,1.819568,113.486206,7.218077,-82.389900
406,412111185,-26.253075,-32.203609,-26.041359,2.092930,-0.626195,1.361144,125.931488,-0.366304,-85.966797
407,412127852,-23.384001,-32.842575,-27.601530,2.740240,-0.378250,1.292701,123.283524,-2.531417,-87.476677
408,412144519,-20.677853,-33.400581,-29.168613,3.078327,-0.244463,1.459115,112.457115,-2.353307,-85.292313
409,412161186,-18.213438,-33.826286,-30.659914,2.866356,-0.620405,1.222791,99.794304,-0.127110,-78.499313
410,412177853,-15.842105,-34.153137,-32.057190,2.161009,-1.356142,0.990177,96.875420,0.761191,-71.932564
411,412194520,-13.538160,-34.419998,-33.318256,1.784074,-1.694574,0.988248,97.073822,-0.467364,-64.258904
412,412211187,-11.378305,-34.600586,-34.477497,1.851569,-1.658339,0.896912,91.647018,0.960074,-58.032524
413,412227854,-9.524010,-34.639164,-35.527966,1.725130,-1.601672,0.711349,76.910454,6.317096,-51.156727
414,412244521,-8.040235,-34.524197,-36.448025,1.709418,-1.220321,0.590743,59.154655,12.948992,-43.597729
415,412261188,-6.985342,-34.263165,-37.202339,1.523924,-1.187432,0.408656,39.187153,19.611137,-34.711765
416,412277855,-6.311851,-33.861507,-37.750271,0.995186,-1.126469,0.109463,23.455139,26.296167,-23.996460
417,412294522,-5.987946,-33.343914,-38.125774,0.418011,-0.934766,-0.331222,8.425842,32.096966,-15.066165
418,412311189,-5.842171,-32.762413,-38.354733,-0.287493,-1.581105,-0.754369,2.713428,35.104279,-7.594712
419,412327856,-5.539762,-32.177303,-38.401764,-0.545167,-2.136781,-1.244816,18.088928,34.385838,1.367091
420,412344523,-4.972025,-31.606705,-38.264256,-0.301148,-1.682035,-1.488373,39.886158,32.670692,10.357229
421,412361190,-4.381418,-31.027565,-37.972538,-0.228865,-0.809594,-1.204243,46.001022,32.635834,17.974714
422,412377857,-4.065263,-30.343529,-37.590961,-0.526097,-0.011543,-1.000723,32.121326,38.703838,22.890694
423,412394524,-4.021479,-29.551971,-37.183701,-1.227949,-0.759906,-1.222064,16.294910,45.103973,24.699535
424,412411191,-3.885360,-28.715298,-36.718567,-1.691412,-1.359518,-1.460141,23.227388,47.620319,28.003679
425,412427858,-3.530967,-27.883648,-36.178684,-1.150149,-1.031927,-1.509672,38.098827,47.167301,31.905163
426,412444525,-3.113451,-27.038721,-35.603420,-0.503856,-0.299042,-1.357013,42.450424,48.051964,33.719574
427,412461192,-2.787318,-26.178083,-34.973885,-0.246530,0.032401,-1.169806,37.970417,49.046585,36.588158
428,412477859,-2.518082,-25.332634,-34.252644,-0.290122,0.080090,-1.038888,36.446342,48.081635,41.483944
429,412494526,-2.267034,-24.488255,-33.398373,0.234733,0.351423,-1.079419,38.141304,47.888763,48.761513
430,412511193,-2.081893,-23.622944,-32.386555,0.900838,0.693862,-1.353612,37.345497,48.986660,57.566681
431,412527860,-1.999200,-22.704300,-31.236351,0.936895,0.859713,-1.649703,33.599384,52.033939,65.574539
432,412544527,-1.983248,-21.751944,-29.935101,0.751125,1.010247,-1.440451,31.983713,53.804398,74.422142
433,412561194,-2.016939,-20.759352,-28.483730,0.328426,1.011548,-1.495835,31.039972,55.893543,83.397263
434,412577861,-1.977194,-19.751045,-26.868608,0.141610,0.820783,-1.665232,37.426624,56.497334,93.181366
435,412594528,-1.903492,-18.650610,-25.107635,0.425490,1.519681,-1.655701,40.664711,61.811531,102.173836
436,412611195,-1.935169,-17.442575,-23.146641,0.295491,1.681850,-2.103679,36.042351,67.891663,114.452644
437,412627862,-1.979819,-16.109835,-21.013945,-0.074065,1.910306,-2.464862,35.749500,74.924469,125.399872
438,412644529,-1.989658,-14.654110,-18.836231,-0.470702,2.744099,-2.185524,35.561893,82.115150,129.161926
439,412661196,-2.189217,-13.184236,-16.588440,-0.028527,3.749002,-2.337486,21.961639,82.541344,134.271072
440,412677863,-2.947040,-11.556220,-14.228719,0.169282,3.679627,-3.292449,-13.644409,90.558662,142.780685
441,412694530,-4.053458,-9.708209,-11.633025,-0.599390,2.429883,-4.127879,-36.155575,100.492020,159.812149
442,412711197,-4.522478,-7.739630,-8.718462,-1.741184,1.415623,-3.939500,-0.134603,104.012482,181.463440
443,412727864,-3.989941,-5.827346,-5.571410,-3.719785,2.242522,-1.590864,55.717373,99.648422,195.766235
444,412744531,-3.116001,-4.125186,-2.273714,-4.833460,4.130962,0.600663,71.051208,88.849777,203.335556
445,412761198,-2.801157,-2.574347,0.869821,-5.377927,3.592340,1.253769,31.365499,82.327614,193.109146
446,412777865,-3.202283,-1.247037,3.436564,-6.726752,-1.198434,2.693037,-17.477678,70.581856,158.140884
447,412794532,-3.578937,-0.317753,4.737896,-6.625241,-7.532066,1.902960,-20.077742,50.143772,81.484375
448,412811199,-3.248796,0.126437,4.779203,-4.952561,-4.351110,1.142043,21.290852,25.537916,4.285463
449,412827866,-3.185848,0.349690,4.113568,-1.999489,1.117651,1.820519,5.435811,14.679542,-38.913780
450,412844533,-3.823967,0.548562,3.501707,-0.891081,2.343390,1.933669,-36.508957,13.212049,-35.701942
451,412861200,-4.540205,0.754981,3.146331,-0.294256,1.282755,0.699821,-41.249554,12.962400,-20.146852
452,412877867,-4.736280,0.945527,2.955512,-0.519942,0.003472,0.304314,-10.117629,11.375503,-10.269281
453,412894534,-4.554663,1.093241,2.721995,-0.502987,0.448556,0.989868,12.623178,9.021362,-13.031580
454,412911201,-4.521703,1.211013,2.283429,-1.169247,0.602154,1.574681,3.982253,8.177240,-25.451633
455,412927868,-4.703703,1.261720,1.532624,-1.827041,0.228695,1.847000,-8.473781,5.702024,-44.432995
456,412944535,-5.025446,1.171589,0.473441,-2.419163,-0.111729,2.031072,-16.480436,-0.958596,-63.554256
457,412961202,-5.391936,0.885951,-0.849837,-3.095393,-0.108863,1.748126,-19.086872,-10.825806,-80.404076
458,412977869,-5.737057,0.377669,-2.433900,-3.729665,-0.200238,0.991192,-18.179518,-22.111687,-97.343895
459,412994536,-6.060785,-0.328853,-4.278340,-4.054407,0.091659,0.562993,-17.892708,-31.777353,-114.240334
460,413011203,-6.487401,-1.208311,-6.303946,-3.994042,0.675598,0.936338,-25.738235,-40.165722,-126.370605
461,413027870,-7.101862,-2.243958,-8.383317,-4.010202,1.106024,1.046817,-39.132248,-47.954708,-130.995209
462,413044537,-7.822283,-3.505169,-10.401213,-4.303532,1.453411,0.585603,-47.800026,-60.345631,-129.544006
463,413061204,-8.639699,-4.998706,-12.319366,-4.208178,1.530178,-0.191444,-56.078629,-73.288422,-126.246445
464,413077871,-9.659366,-6.703891,-14.121150,-3.728379,1.277982,-0.977402,-70.697487,-84.952774,-122.276039
465,413094538,-10.613000,-8.560730,-15.905636,-2.911089,-0.093804,-0.921888,-69.932388,-92.049835,-123.912064
466,413111205,-11.191772,-10.520026,-17.704290,-2.463243,-0.206382,-0.558940,-51.104740,-96.365707,-126.587982
467,413127872,-11.475854,-12.517332,-19.442064,-2.140949,1.101977,-0.603631,-36.353142,-98.487305,-123.576347
468,413144539,-11.929048,-14.521996,-21.027008,-1.384406,2.649977,-1.187979,-47.907776,-100.096565,-114.793800
469,413161206,-12.799937,-16.468792,-22.511528,-0.644352,2.137463,-2.061340,-74.532227,-96.797829,-108.712845
470,413177873,-13.743223,-18.318205,-23.992022,-0.767213,0.466870,-2.113308,-81.633926,-89.624344,-107.836021
471,413194540,-14.358330,-20.145306,-25.455259,-1.470474,0.039624,-1.944893,-64.309418,-87.302002,-106.890945
472,413211207,-14.651222,-21.985584,-26.793028,-1.170713,0.860716,-1.604037,-44.907040,-89.219963,-100.038033
473,413227874,-14.969502,-23.808453,-27.988331,-0.212036,1.561555,-1.418785,-45.480770,-89.936264,-91.698975
474,413244541,-15.443348,-25.526035,-29.124128,0.506372,0.409246,-1.149406,-55.351212,-84.291771,-86.659882
475,413261208,-15.811300,-27.011305,-30.388079,0.382773,-0.538367,-1.112088,-54.121655,-68.587036,-89.368637
476,413277875,-16.005627,-28.295334,-31.723576,0.048887,-0.365111,-1.045072,-47.326263,-55.716007,-89.247559
477,413294542,-16.082212,-29.521147,-32.989506,0.125599,-0.110686,-1.358479,-39.787998,-53.382423,-84.104065
478,413311209,-16.153837,-30.596899,-34.134491,0.667324,0.093434,-0.800800,-37.181965,-46.574612,-74.919098
479,413327876,-16.228592,-31.577652,-35.083324,1.063721,-1.287567,0.087166,-32.352112,-43.986851,-63.103245
480,413344543,-16.021896,-32.464161,-35.881035,0.880755,-1.175326,0.077100,-11.449475,-40.887932,-53.637650
481,413361210,-15.689640,-33.318802,-36.481518,1.318712,-0.242685,0.245314,1.900167,-42.118668,-42.991165
482,413377877,-15.515821,-34.151653,-36.828922,1.834947,-0.037182,-0.129516,0.381537,-44.518654,-30.014601
483,413394544,-15.535575,-34.920620,-36.907211,1.651928,-1.264013,-0.547055,-2.321797,-44.465275,-15.949807
484,413411211,-15.507021,-35.633503,-36.656536,1.435723,-2.205078,-0.454511,11.924413,-45.538853,0.513289
485,413427878,-15.172423,-36.316921,-36.116474,1.272322,-1.895188,-0.350142,40.631691,-47.510323,14.567510
486,413444545,-14.748900,-36.980923,-35.267334,1.789203,-1.068595,0.039229,57.342930,-50.064278,29.331356
487,413461212,-14.680433,-37.504871,-34.173126,2.798839,-0.210062,0.262688,45.356796,-44.698212,42.693504
488,413477879,-15.182666,-37.808567,-32.936810,2.510015,-0.290776,0.246919,16.698309,-33.749580,52.185150
489,413494546,-16.104500,-37.919819,-31.600885,1.848795,-0.700141,0.449965,-4.601746,-24.496302,59.277821
490,413511213,-17.172913,-37.899147,-30.205666,1.213988,-1.144411,0.605447,-11.163922,-18.722055,63.781673
491,413527880,-18.290052,-37.755714,-28.756184,1.628820,-1.304850,0.693089,-12.184981,-13.717773,68.196449
492,413544547,-19.590134,-37.464581,-27.247604,2.085912,-0.950941,0.788849,-21.259933,-7.737566,73.636284
493,413561214,-21.184217,-37.034447,-25.700993,2.151743,-0.611333,0.771653,-37.972179,-2.520088,78.378128
494,413577881,-23.038820,-36.506275,-24.106060,2.186720,-0.260564,0.935007,-52.487213,-0.468075,83.099266
495,413594548,-25.095993,-35.955639,-22.390429,2.684203,-0.191370,0.775653,-61.087784,-4.662050,89.447128
496,413611215,-27.188934,-35.430836,-20.516294,3.069643,-0.639320,0.661566,-58.467583,-12.930027,96.019669
497,413627882,-29.104403,-34.933674,-18.585405,2.653234,-1.400237,0.405739,-46.676220,-19.314848,97.731636
498,413644549,-30.772114,-34.502365,-16.691536,2.086483,-1.601824,0.549383,-33.849316,-25.125128,94.025002
499,413661216,-32.207592,-33.981003,-15.093657,2.054253,-0.222283,1.419504,-30.687433,-15.652979,84.097404
500,413677883,-33.808094,-33.677841,-13.441142,1.375038,-0.272966,1.538547,-39.334843,-30.537615,79.160812
501,413694550,-35.296276,-33.537830,-11.916107,1.583293,-0.786066,1.655225,-37.149532,-37.220673,67.715370
502,413711217,-36.490150,-33.532036,-10.633310,1.175701,-0.998004,1.688367,-27.618416,-38.243111,52.364079
503,413727884,-37.469059,-33.719692,-9.557553,1.253556,-0.674302,1.546181,-21.499746,-42.229797,36.349312
504,413744551,-38.284058,-34.075523,-8.742416,1.456445,-0.284576,1.531122,-20.130344,-42.677387,19.125799
505,413761218,-38.860836,-34.514233,-8.288673,1.428263,0.306840,1.613502,-17.774223,-35.500587,1.368065
506,413777885,-39.221680,-34.995762,-8.174446,1.631152,0.507943,1.481371,-16.251213,-26.881922,-13.623837
507,413794552,-39.376751,-35.466995,-8.373452,1.580573,0.399326,1.284038,-14.703106,-16.595787,-25.247744
508,413811219,-39.256454,-35.930199,-8.802296,1.244548,0.027618,1.131618,-6.307041,-9.154469,-33.560970
509,413827886,-38.757656,-36.410011,-9.390360,0.865155,-0.075465,1.228878,10.593179,-5.331829,-40.034592
510,413844553,-37.940327,-36.932201,-10.120407,1.236003,0.317536,1.386421,24.367538,-3.660654,-46.772552
511,413861220,-37.000298,-37.442764,-11.040060,1.786625,0.872448,1.307713,24.537422,1.544420,-53.298969
512,413877887,-36.112156,-37.907928,-12.140821,2.332654,0.776822,1.096563,14.406798,7.830166,-58.381233
513,413894554,-35.218010,-38.372295,-13.348855,2.118070,-0.074755,0.991526,10.369815,9.718602,-62.316154
514,413911221,-34.094143,-38.824772,-14.655387,1.676843,-0.781170,1.288829,20.010242,11.627384,-65.583809
515,413927888,-32.644321,-39.310574,-15.987820,1.351295,-0.968474,1.407011,38.084686,8.925603,-67.616165
516,413944555,-30.972231,-39.822536,-17.360476,1.243782,-0.352090,1.540834,49.344051,6.493302,-69.892647
517,413961222,-29.381767,-40.326347,-18.781694,1.797028,0.069134,1.540504,42.010815,5.805573,-71.347046
518,413977889,-28.047382,-40.767330,-20.273129,2.255549,-0.025425,1.282716,23.370394,8.605524,-72.086403
519,413994556,-26.832306,-41.129593,-21.815538,2.119071,-1.000236,1.126034,13.731177,12.064654,-71.782700
520,414011223,-25.402113,-41.463005,-23.303833,1.222596,-1.735007,1.117068,28.353062,10.724680,-68.778831
521,414027890,-23.684677,-41.818680,-24.635792,0.978229,-1.443156,1.246673,51.417828,4.556778,-62.927284
522,414044557,-21.959461,-42.158768,-25.840319,1.276103,-0.649006,1.302814,56.637688,1.195698,-57.164967
523,414061224,-20.524393,-42.402710,-26.980228,1.413634,-0.353266,1.202169,41.563396,3.863295,-52.206249
524,414077891,-19.379425,-42.533966,-28.112358,1.312224,-0.654414,1.011458,24.305059,8.871766,-49.523914
525,414094558,-18.358452,-42.543495,-29.234774,1.026479,-1.130619,0.778706,17.198753,14.685611,-46.875462
526,414111225,-17.319464,-42.456810,-30.256701,0.715758,-1.531632,0.396321,22.383951,17.984892,-41.175499
527,414127892,-16.216604,-42.301022,-31.132765,0.742531,-1.173232,0.295943,32.210793,19.342751,-34.221798
528,414144559,-15.268621,-42.062138,-31.867239,0.548520,-0.510154,0.212504,28.753546,21.850937,-27.288095
529,414161226,-14.569854,-41.738342,-32.508465,0.508634,-0.629764,0.236307,17.697910,25.343441,-22.415276
530,414177893,-13.955339,-41.313099,-33.086880,0.330249,-1.093100,-0.078329,15.328263,30.328804,-18.644350
531,414194560,-13.282305,-40.819233,-33.520416,0.490659,-1.351299,-0.179044,24.756659,32.620831,-11.835000
532,414211227,-12.600622,-40.222427,-33.761082,0.387601,-0.733374,-0.251121,32.984283,36.565399,-2.433125
533,414227894,-12.104675,-39.507870,-33.828175,0.364360,-0.251218,-0.547925,28.641750,41.751640,6.394294
534,414244561,-11.783873,-38.649185,-33.822170,0.471525,-0.445207,-1.007622,20.939430,49.559238,11.175959
535,414261228,-11.470522,-37.675247,-33.762276,0.244343,-0.902215,-1.197466,22.485392,55.881470,14.783267
536,414277895,-11.047839,-36.660564,-33.542645,0.508828,-0.816512,-1.107947,34.786999,56.874779,22.420191
537,414294562,-10.577486,-35.594898,-33.123493,0.691268,-0.261414,-0.744075,44.514870,58.213055,32.178989
538,414311229,-10.332334,-34.445621,-32.526199,0.275415,0.629147,-0.583484,36.741009,61.707077,41.603024
539,414327896,-10.400535,-33.258823,-31.797768,0.081570,0.692747,-0.488058,21.721901,62.732029,48.746689
540,414344563,-10.554087,-32.001804,-31.009401,0.057792,0.416423,-0.632791,17.763678,66.135689,53.120377
541,414361230,-10.590671,-30.770361,-30.075434,0.479505,0.212133,-0.549458,28.459675,63.069954,60.814674
542,414377897,-10.449325,-29.585545,-28.992699,0.703854,0.277081,-0.797985,42.609699,58.854332,68.429413
543,414394564,-10.145563,-28.468575,-27.773762,0.535742,0.220390,-1.015222,55.184399,53.722775,75.132484
544,414411231,-9.812017,-27.401915,-26.420113,0.107416,0.616827,-1.135832,59.535755,49.812695,81.993164
545,414427898,-9.526474,-26.382198,-24.923935,0.135275,0.798406,-1.030998,59.212399,46.079556,89.432945
546,414444565,-9.327438,-25.301569,-23.313246,0.225226,0.520532,-1.394391,55.545860,48.926777,96.656982
547,414461232,-9.212616,-24.073872,-21.604673,0.368514,0.304955,-1.818906,51.189228,56.904308,104.026970
548,414477899,-9.175956,-22.679760,-19.748348,0.750829,0.485223,-2.409299,47.878139,65.442444,114.523430
549,414494566,-9.146654,-21.029020,-17.749214,1.650412,0.593258,-3.132557,47.896515,79.260139,125.912010
550,414511233,-9.085863,-19.100594,-15.547071,2.164975,0.903726,-4.180405,50.469090,93.783012,141.115417
551,414527900,-8.788681,-16.878542,-13.040045,1.652820,0.929966,-4.683445,65.776276,108.678436,162.292160
552,414544567,-8.106195,-14.406971,-10.107195,-0.339083,2.318040,-4.164561,89.879753,120.985680,189.656158
553,414561234,-6.982802,-11.825938,-6.679283,-2.716135,3.052019,-4.356986,115.544334,126.398445,219.174164
554,414577901,-5.293951,-9.277185,-2.872770,-5.583810,3.427482,-3.427417,144.597504,127.197983,239.870041
555,414594568,-3.460354,-7.063568,1.019592,-8.732202,4.409459,0.203162,144.642670,113.929649,240.908997
556,414611235,-2.452170,-5.336823,4.533879,-9.378572,2.267337,1.949229,84.722321,91.782410,214.948853
557,414627902,-2.609798,-4.020386,6.912710,-8.392552,-4.061106,3.713979,3.660703,71.741859,145.852081
558,414644569,-2.874660,-3.241483,7.477222,-5.957675,-8.892116,1.154799,-12.260448,44.159779,36.225891
559,414661236,-2.185989,-3.040658,6.813930,-2.684835,-3.024598,-0.533308,40.651730,12.866338,-38.971443
560,414677903,-1.969217,-2.933490,5.797760,-1.142049,2.802699,1.388163,11.351349,7.697558,-60.429527
561,414694570,-2.269832,-2.939030,5.281812,-0.363709,2.914251,0.340905,-18.109016,-0.126681,-30.716167
562,414711237,-2.185925,-2.898283,5.282798,0.838953,1.825049,-0.985508,6.540466,1.502499,0.350977
563,414727904,-1.725286,-2.699893,5.516132,0.314732,1.381491,0.160690,29.818577,10.483995,14.585924
564,414744571,-1.390659,-2.385692,5.670755,-0.198020,1.507127,1.477620,21.980883,17.659021,9.987531
565,414761238,-1.235964,-2.050630,5.646370,-0.398192,0.658232,1.735568,10.711997,19.197624,-0.785696
566,414777905,-1.071214,-1.778971,5.533753,-0.520293,0.694331,1.644768,11.143718,15.496844,-6.209680
567,414794572,-0.926673,-1.616361,5.431251,-0.728306,1.136047,1.333042,9.972357,8.925615,-5.760057
568,414811239,-0.931034,-1.546171,5.358732,-0.724346,1.260679,0.910469,1.096307,3.342567,-4.061125
569,414827906,-1.168332,-1.531504,5.255394,-0.761606,0.598870,0.763483,-12.930451,0.052692,-5.956185
570,414844573,-1.577166,-1.547170,4.965007,-1.031145,-0.426299,0.824228,-23.526144,-1.465486,-17.210159
571,414861240,-1.904974,-1.647920,4.388793,-1.558392,-1.361630,1.002169,-19.158621,-5.938696,-34.505646
572,414877907,-1.992939,-1.897144,3.507946,-2.325943,-1.476054,1.045359,-5.434406,-14.099927,-53.084476
573,414894574,-1.997285,-2.344412,2.352249,-2.927210,-0.610921,0.979095,-1.343316,-25.366051,-69.976318
574,414911241,-2.123364,-2.952085,0.894958,-3.102977,-0.150826,0.393506,-10.117518,-34.263962,-88.393661
575,414927908,-2.326068,-3.701652,-0.862105,-3.399463,-0.408857,0.192833,-16.790277,-41.830246,-106.710922
576,414944575,-2.497323,-4.600049,-2.845201,-3.852596,-0.279418,0.199618,-17.394032,-49.846954,-120.642097
577,414961242,-2.623002,-5.646992,-4.978632,-4.068093,0.013202,-0.331403,-17.474159,-58.053555,-129.983932
578,414977909,-2.636770,-6.821207,-7.218851,-3.938924,-0.029127,-1.046480,-13.921021,-65.253098,-136.525864
579,414994576,-2.348513,-8.075093,-9.580812,-3.510525,-0.422670,-1.240491,0.427297,-70.065964,-143.481369
580,415011243,-1.633411,-9.380157,-12.016589,-3.755621,-0.091399,-0.873816,22.234398,-74.262032,-146.914551
581,415027910,-0.657759,-10.744597,-14.496138,-4.004336,0.990340,-0.544974,34.052872,-79.955627,-147.923553
582,415044577,0.289951,-12.170823,-17.008648,-3.001202,1.622486,-0.867310,28.428875,-86.144508,-147.853119
583,415061244,1.176973,-13.549754,-19.569372,-2.191710,0.959378,-1.057850,20.540657,-85.701134,-148.546829
584,415077911,2.214395,-14.926216,-22.085680,-2.012656,0.871686,-0.649033,26.632635,-87.942909,-143.660095
585,415094578,3.313610,-16.353249,-24.505404,-1.627550,1.538636,-0.332692,28.338465,-93.331078,-135.344757
586,415111245,4.197686,-17.789780,-26.811148,-0.886690,2.401327,-0.331089,13.963053,-95.741295,-126.141945
587,415127912,4.705926,-19.208494,-28.990063,-0.279395,2.401423,-0.551260,-9.449505,-95.566002,-116.816971
588,415144579,5.018906,-20.554258,-31.091042,0.726034,1.293834,-0.422024,-22.550402,-91.582680,-111.085411
589,415161246,5.320211,-21.835360,-33.051815,0.503288,1.313012,-0.475822,-22.913689,-87.514328,-102.122284
590,415177913,5.598094,-23.118593,-34.788017,0.642527,1.388564,-0.475058,-21.609703,-86.879982,-88.298256
591,415194580,5.720332,-24.398064,-36.260860,0.671890,1.843594,-0.893825,-26.722565,-85.446976,-72.713440
592,415211247,5.690722,-25.699282,-37.552078,0.967084,1.097973,-1.268246,-33.033264,-85.740814,-61.869404
593,415227914,5.717247,-26.919668,-38.734104,1.066692,-0.025439,-1.201688,-28.298468,-80.253784,-55.772045
594,415244581,5.831693,-28.149019,-39.800816,0.325316,0.301733,-0.752867,-21.177668,-80.167351,-48.835133
595,415261248,5.969399,-29.417768,-40.700718,0.897351,0.021887,-0.404250,-16.191895,-81.655830,-39.036911
596,415277915,6.044688,-30.540607,-41.449951,1.094980,0.710723,-0.467137,-16.402836,-72.141830,-31.467440
597,415294582,6.074396,-31.627913,-42.120758,0.270629,0.426327,-1.005434,-17.455212,-69.575066,-27.175570
598,415311249,6.170051,-32.715347,-42.743423,-0.112782,-1.085014,-1.173536,-12.611926,-69.308853,-24.272194
599,415327916,6.374175,-33.723988,-43.229595,-0.035760,-1.798050,-1.030191,-2.190970,-63.881416,-17.439802
600,415344583,6.590470,-34.677731,-43.460136,0.223101,-1.375961,-0.901395,6.746565,-59.205967,-4.708966
601,415361250,6.745450,-35.593811,-43.814034,0.354715,-0.835588,-0.660483,11.404552,-55.753128,7.994770
602,415377917,6.941761,-36.471371,-43.952183,0.033743,-1.015330,-0.087380,20.080051,-52.400738,16.235411
603,415394584,7.095464,-37.244396,-43.931145,-0.148431,-1.053258,0.492002,21.479513,-45.483624,20.487202
604,415411251,7.059358,-37.893692,-43.802261,-0.582883,-1.319442,1.154773,12.888501,-37.673191,22.799868
605,415427918,6.828906,-38.482719,-43.517422,-0.316507,-1.381806,1.441098,5.441230,-33.506542,27.124214
606,415444585,6.369214,-38.959888,-43.094196,0.841546,-1.087402,1.388428,-3.535163,-26.352385,31.617359
607,415461252,5.568126,-39.319042,-42.536812,2.356740,-0.232711,1.179418,-20.237631,-19.186783,34.744221
608,415477919,4.188124,-39.543037,-41.808052,4.241983,0.319775,1.000062,-49.062763,-11.157711,40.506824
609,415494586,2.078806,-39.553925,-40.817974,6.270780,0.161491,0.418332,-82.757088,1.057436,51.504780
610,415511253,-0.646001,-39.281593,-39.490856,7.234606,-0.746978,-0.798322,-107.376915,16.098265,66.554413
611,415527920,-3.389598,-38.841385,-37.865543,5.847843,-0.671513,-0.867775,-97.752937,22.507402,81.755966
612,415544587,-5.655480,-38.389946,-35.972939,2.981712,-1.864059,-1.031114,-60.109188,18.629770,95.261040
613,415561254,-7.299480,-37.926006,-33.941650,0.360323,-3.637623,-1.174264,-18.740919,15.384068,102.611855
614,415577921,-8.478576,-37.492584,-31.858845,-0.171848,-3.925334,-0.799621,10.110570,10.666168,105.555222
615,415594588,-9.418106,-37.083057,-29.847431,0.920829,-1.914458,-0.104119,20.955898,7.791396,102.486458
616,415611255,-10.621353,-36.624672,-28.143364,1.852493,1.678516,1.545192,-6.928329,11.302405,88.841599
617,415627922,-12.488882,-36.066441,-26.856749,1.675838,1.860908,2.215677,-62.541660,18.767523,70.927666
618,415644589,-14.384230,-35.574131,-25.876179,0.389613,-0.928773,1.919226,-75.609932,15.964355,56.508144
619,415661256,-15.651220,-35.224957,-25.138586,0.418193,-1.863509,1.731651,-46.974995,9.220624,43.159534
620,415677923,-16.354574,-35.009533,-24.531126,1.176712,-0.729559,1.776063,-19.730179,3.288464,32.419117
621,415694590,-16.815079,-34.883480,-24.105070,1.744087,0.791553,2.178529,-11.484260,0.355524,22.439150
622,415711257,-17.153120,-34.835323,-23.873629,1.543348,1.168914,2.528163,-10.846373,-1.473128,11.944921
623,415727924,-17.241537,-34.877445,-23.804907,1.093687,0.364491,2.305998,-1.453534,-4.322156,2.694283
624,415744591,-16.952257,-35.029613,-23.875076,1.211902,-0.133804,1.668121,16.437914,-8.616777,-5.769897
625,415761258,-16.350193,-35.253551,-24.116938,1.355044,-0.377809,1.397047,29.262150,-10.374159,-15.005108
626,415777925,-15.516373,-35.560020,-24.588287,1.207662,-0.349455,1.565007,37.083488,-13.055301,-24.257854
627,415794592,-14.482050,-35.943535,-25.273008,1.494003,-0.462871,1.679842,41.505753,-15.246260,-35.211147
628,415811259,-13.275150,-36.375641,-26.195116,1.598769,-0.434175,1.669149,43.421242,-16.106354,-46.379494
629,415827926,-12.004836,-36.831249,-27.284046,2.036209,-0.339383,1.486690,41.120602,-16.834450,-53.703495
630,415844593,-10.664197,-37.285847,-28.509558,2.188697,-0.655734,1.090496,40.286293,-16.844547,-59.066090
631,415861260,-9.193036,-37.757534,-29.809193,2.284750,-0.882391,0.798525,45.126762,-18.789474,-61.755798
632,415877927,-7.575861,-38.231403,-31.153162,2.620409,-1.019085,0.883998,51.913094,-20.353371,-62.791016
633,415894594,-5.915737,-38.656937,-32.524963,2.613906,-0.652446,1.159146,52.973927,-19.149672,-62.814178
634,415911261,-4.360688,-39.019592,-33.873417,2.166576,-0.618483,1.365533,46.893650,-17.243565,-60.821449
635,415927928,-2.904879,-39.334427,-35.124031,1.680601,-1.063718,1.169139,43.890388,-16.240599,-55.875950
636,415944595,-1.394238,-39.659607,-36.271904,1.353971,-1.494621,0.787045,50.052074,-18.444693,-51.408466
637,415961262,0.202547,-40.023869,-37.326340,1.476204,-1.461950,0.837076,57.632004,-22.198568,-47.465343
638,415977929,1.669775,-40.385700,-38.294243,1.644529,-0.918420,1.058914,52.496166,-23.247765,-43.172001
639,415994596,2.866351,-40.709347,-39.165939,1.304746,-0.883695,1.004972,38.870510,-21.800097,-39.183941
640,416011263,3.869104,-40.992924,-39.943455,0.819980,-1.126024,0.815783,30.156010,-19.914831,-35.144329
641,416027930,4.796599,-41.236282,-40.602962,0.696769,-1.422685,0.621482,29.736094,-17.711555,-30.002781
642,416044597,5.660973,-41.401524,-41.118217,0.846012,-1.241710,0.461432,31.115005,-12.949026,-24.106165
643,416061264,6.387674,-41.496235,-41.494637,0.874804,-1.103930,0.396173,28.308813,-8.411386,-18.125105
644,416077931,6.934053,-41.458652,-41.740166,0.636265,-1.123733,0.225448,22.342272,-0.083523,-13.504864
645,416094598,7.356401,-41.303505,-41.877037,0.691873,-1.111257,0.036723,19.359835,7.425142,-9.408689
646,416111265,7.667459,-41.011299,-41.883057,1.087170,-1.010814,-0.162683,17.871740,16.286377,-4.720866
647,416127932,7.885283,-40.564861,-41.710564,1.092100,-0.967678,-0.512432,19.382696,26.545279,2.074886
648,416144599,8.026937,-39.964546,-41.354462,0.785600,-0.674159,-1.014318,21.975027,36.882359,9.190668
649,416161266,8.118608,-39.228569,-40.879768,0.311344,-0.506626,-1.377147,23.356470,45.751915,13.547812
650,416177933,8.156805,-38.376728,-40.390507,0.209416,-0.283882,-1.294391,22.155832,53.062038,15.616329
651,416194600,8.127395,-37.405537,-39.835648,0.388133,-0.292652,-1.231529,20.152340,60.632431,17.959064
652,416211267,8.106216,-36.338409,-39.176044,0.448910,-0.445417,-1.380863,23.947678,67.084946,22.504795
653,416227934,8.065420,-35.170334,-38.400761,-0.042552,-0.222482,-1.358798,26.206198,73.925201,27.718458
654,416244601,7.896437,-33.960644,-37.522511,-0.667876,0.522391,-1.310626,21.234125,77.131622,33.095947
655,416261268,7.614520,-32.717804,-36.653286,-0.670460,0.494587,-1.324553,13.227368,78.991562,33.309574
656,416277935,7.396968,-31.474670,-35.818531,-0.499357,0.019820,-1.572134,15.040756,78.711876,32.524113
657,416294602,7.339100,-30.274929,-34.934361,-0.117054,-0.025266,-1.405771,25.235304,76.446907,36.126060
658,416311269,7.390523,-29.115564,-33.921375,-0.052991,0.356529,-1.170068,34.680004,74.971535,43.643799
659,416327936,7.448976,-27.987633,-32.810360,-0.427455,0.702835,-0.974656,36.854317,73.885239,49.522182
660,416344603,7.438657,-26.867504,-31.666937,-0.674975,0.826787,-0.878420,32.471436,73.740631,51.872849
661,416361270,7.258508,-25.706562,-30.511450,-0.626896,0.916111,-0.930458,21.385706,76.240852,52.938179
662,416377937,7.021636,-24.473639,-29.334219,-0.317182,0.430240,-1.415764,17.232565,80.553375,54.479729
663,416394604,6.889833,-23.151974,-28.129099,-0.367840,0.165082,-1.543041,22.779844,85.925140,56.262672
664,416411271,6.958075,-21.842316,-26.892006,-0.777799,0.325548,-1.255269,33.991978,85.469254,58.805565
665,416427938,7.165388,-20.617359,-25.599569,-0.732654,0.726912,-1.004281,42.016987,81.017532,62.900646
666,416444605,7.353270,-19.397850,-24.246977,-0.090700,1.015523,-1.012962,40.539349,81.406693,66.601860
667,416461272,7.455682,-18.115602,-22.819183,0.027372,1.058114,-1.387634,35.190891,85.929802,70.730064
668,416477939,7.585569,-16.786850,-21.278797,-0.262217,0.977452,-1.636277,37.009594,89.758766,77.180519
669,416494606,7.764607,-15.424434,-19.628960,-0.692739,0.757693,-1.711217,39.702465,92.890228,83.542213
670,416511273,7.932823,-14.059034,-17.829781,-0.982986,1.369302,-1.259952,39.063042,94.582809,92.439102
671,416527940,7.757448,-12.633891,-15.863485,0.202352,3.183379,-0.768976,18.215023,99.538734,102.255554
672,416544607,6.900710,-11.020848,-13.670918,1.566234,3.878632,-1.307046,-22.935156,111.573410,115.578987
673,416561274,5.792768,-9.135840,-11.256229,-0.482016,2.481415,-1.223567,-39.621857,127.328590,129.493210
674,416577941,4.964211,-7.211188,-8.670167,-3.197731,1.263624,-1.003272,-26.159410,128.512802,142.314789
675,416594608,4.590808,-5.467513,-5.971171,-3.566965,1.491494,-1.062812,-3.036061,116.795578,151.905273
676,416611275,4.419806,-3.877256,-3.189803,-3.275398,2.311745,-0.323766,4.816783,107.306801,158.547531
677,416627942,4.304952,-2.520523,-0.571901,-5.211631,0.069977,1.276444,3.350983,92.211090,150.412338
678,416644609,4.277627,-1.562122,1.367176,-6.414612,-4.041454,2.823577,3.982095,65.147598,111.870148
679,416661276,4.552648,-1.050163,2.148986,-5.472566,-6.469625,1.327815,19.061619,33.324017,44.619701
680,416677943,5.321684,-0.934095,1.982499,-2.732142,-1.651823,0.470259,47.482628,5.147255,-10.323863
681,416694610,5.497233,-0.830603,1.368056,-0.908946,2.865556,0.946584,11.484751,1.765973,-37.056728
682,416711277,4.817932,-0.658078,0.879827,-0.245441,2.742778,0.590613,-39.627670,6.733305,-29.875179
683,416727944,4.226170,-0.475628,0.641739,-0.333451,0.438789,-0.322072,-34.146164,8.843194,-14.874624
684,416744611,4.434621,-0.417734,0.541843,-0.514692,-0.344651,-0.325372,13.958838,2.066876,-6.009436
685,416761278,5.039462,-0.397565,0.407398,-0.176438,1.090320,0.723339,37.732239,-0.406002,-7.909972
686,416777945,5.409910,-0.308594,0.133244,-0.312450,1.726499,1.191339,23.621143,2.871800,-16.637226
687,416794612,5.434822,-0.171030,-0.299997,-0.722243,1.447452,1.190001,2.875897,4.813323,-26.426991
688,416811279,5.267742,-0.094173,-0.868687,-1.217679,0.706021,1.028468,-8.618276,0.459788,-34.171001
689,416827946,5.088696,-0.171394,-1.570385,-1.634920,0.222684,0.775698,-9.356560,-9.367292,-41.279812
690,416844613,5.014169,-0.413431,-2.451836,-1.854141,-0.248107,0.572683,-3.258034,-20.080496,-51.170448
691,416861280,5.101939,-0.796345,-3.550185,-2.122951,-0.293429,0.936353,6.055748,-29.658602,-63.382286
692,416877947,5.204076,-1.294547,-4.837156,-2.671516,0.251426,0.930718,6.206910,-37.675079,-73.975479
693,416894614,5.227738,-1.895614,-6.280712,-2.748242,0.400198,0.514826,0.498355,-44.762932,-82.709312
694,416911281,5.316921,-2.608976,-7.871080,-2.721231,-0.075197,0.178778,3.091457,-52.367245,-90.777428
695,416927948,5.644858,-3.453964,-9.550483,-2.521113,-0.112680,0.283499,15.840264,-61.070961,-95.086266
696,416944615,6.108297,-4.407176,-11.281642,-2.631251,0.460236,0.415730,22.182438,-68.501312,-96.991249
697,416961282,6.579573,-5.466124,-13.065224,-2.719911,0.907014,0.222533,20.566172,-75.935013,-98.709496
698,416977949,7.005404,-6.556408,-14.966498,-2.615391,1.010557,0.099709,15.104472,-79.389786,-104.680275
699,416994616,7.368950,-7.618969,-16.999249,-3.145635,1.268195,0.162351,8.267694,-79.416542,-111.868523
700,417011283,7.643326,-8.714228,-19.171312,-3.701398,1.819508,0.290810,-0.542543,-83.034088,-119.074791
701,417027950,7.828736,-9.868115,-21.435226,-3.290398,2.055400,-0.022537,-9.294498,-87.688507,-123.275093
702,417044617,7.968648,-11.044512,-23.747093,-2.555404,1.756745,-0.542941,-15.264551,-89.710899,-125.175705
703,417061284,8.177866,-12.206347,-26.025593,-2.049294,1.824315,-0.846585,-13.477704,-88.884178,-122.549110
704,417077951,8.452355,-13.406768,-28.246529,-1.895238,2.191084,-0.762021,-11.547704,-91.126144,-117.918861
705,417094618,8.658698,-14.636843,-30.370638,-1.310408,2.388465,-0.434382,-16.974876,-92.452019,-111.053169
706,417111285,8.756049,-15.879494,-32.363159,-0.076519,1.812298,-0.634645,-24.095671,-92.240669,-102.479134
707,417127952,8.744517,-17.026630,-34.187847,0.405271,1.786752,-1.075616,-30.173662,-85.083641,-93.064430
708,417144619,8.620208,-18.097918,-35.831795,0.772200,1.731842,-1.063489,-35.694530,-78.821457,-83.017693
709,417161286,8.361720,-19.175119,-37.283714,1.121062,1.132526,-0.644553,-41.822556,-77.197411,-71.857239
710,417177953,8.073836,-20.217339,-38.480080,2.004913,0.346478,-0.554422,-39.942677,-72.634766,-57.710419
711,417194620,7.772336,-21.158844,-39.428860,2.300415,-0.146951,-0.840641,-36.680222,-64.370728,-44.721416
712,417211287,7.558543,-22.016829,-40.182629,1.881563,-0.298149,-1.257784,-27.950020,-57.699833,-34.574383
713,417227954,7.457348,-22.754274,-40.815796,1.695938,-0.556852,-0.890740,-19.024052,-49.523067,-28.806814
714,417244621,7.196650,-23.309975,-41.313297,1.141749,-0.283177,-0.374547,-25.806377,-37.632244,-22.758837
715,417261288,6.694134,-23.797266,-41.617920,0.766933,-0.039785,-0.320539,-35.941319,-32.103737,-12.861977
716,417277955,6.147165,-24.262539,-41.818043,0.224614,-0.756627,-0.435447,-36.195133,-30.020037,-7.541861
717,417294622,5.822298,-24.732170,-41.950218,-0.759073,-1.277992,-0.779487,-21.267246,-29.825937,-4.008855
718,417311289,5.853764,-25.301569,-42.013237,-1.150353,-1.355127,-0.722174,1.806126,-35.382519,0.293433
719,417327956,6.064734,-25.950012,-41.957584,-0.328755,-0.906770,-0.556554,15.623573,-39.430267,7.256311
720,417344623,6.116062,-26.550898,-41.778538,0.402908,-0.386009,-0.571249,9.355019,-35.872906,13.627254
721,417361290,5.880112,-27.055199,-41.508366,0.568384,-0.689539,-0.605748,-5.324289,-29.623329,17.772173
722,417377957,5.491376,-27.457100,-41.178761,0.671505,-1.408965,-0.464286,-12.744186,-23.293459,20.102533
723,417394624,5.118654,-27.766613,-40.752216,0.574801,-1.596250,-0.606750,-8.978308,-17.429592,24.514559
724,417411291,4.776520,-28.013462,-40.152287,0.896639,-1.655874,-0.704269,-2.166178,-13.041265,33.186546
725,417427958,4.355353,-28.235800,-39.318375,0.935729,-1.203711,-0.544533,-0.159709,-10.808527,45.259083
726,417444625,3.721608,-28.423063,-38.255783,1.165558,-0.655199,0.078549,-6.245814,-8.274248,56.981129
727,417461292,2.851988,-28.604738,-37.015949,0.533201,-0.527559,0.594121,-15.143283,-8.149416,66.092720
728,417477959,1.869553,-28.852945,-35.615356,-0.114514,-0.755944,0.952000,-17.032024,-12.855810,74.449875
729,417494626,0.910151,-29.228893,-34.053089,-0.531977,-1.270063,1.102172,-10.540504,-21.572462,82.678802
730,417511293,-0.065704,-29.733252,-32.312061,-0.791087,-2.026602,0.914116,-5.619137,-30.598616,91.357452
731,417527960,-0.962341,-30.353436,-30.412067,-0.781762,-2.550722,0.630023,4.802565,-39.100613,98.542305
732,417544627,-1.870650,-31.018578,-28.432491,0.450346,-1.690416,0.611339,7.646368,-43.424263,101.316353
733,417561294,-3.208426,-31.610369,-26.354074,2.665511,-0.016559,0.631439,-13.919254,-41.194351,105.049492
734,417577961,-5.152532,-31.979712,-24.129112,4.543150,1.040901,0.168520,-44.777950,-31.367596,111.736397
735,417594628,-7.470315,-32.095417,-21.834576,4.748073,0.829160,-0.670161,-64.512543,-20.715744,115.429703
736,417611295,-9.673368,-32.037617,-19.585903,4.276368,-0.430203,-0.981388,-59.041981,-14.586226,113.776619
737,417627962,-11.380096,-31.876173,-17.406687,3.956275,-1.504942,-0.460151,-31.695660,-11.704856,111.044365
738,417644629,-12.486783,-31.612144,-15.353500,3.702914,-1.117059,0.528805,-0.089405,-7.110662,105.979935
739,417661296,-13.129683,-31.255787,-13.580969,3.036002,-0.991701,1.367029,18.383999,-0.202609,93.435646
740,417677963,-13.433063,-30.856384,-12.192590,2.732992,-0.976337,1.879429,26.264017,6.003713,75.171875
741,417694630,-13.544204,-30.431562,-11.314025,2.449939,-1.088805,2.106993,21.692181,13.293183,50.262238
742,417711297,-13.531949,-29.993055,-10.958393,2.176350,-1.354269,2.079142,12.966828,20.357916,24.303425
743,417727964,-13.386044,-29.612112,-11.071368,2.011209,-1.131941,1.847480,6.881954,22.700670,-0.182632
744,417744631,-13.171950,-29.322966,-11.574702,1.989044,-0.653602,1.814322,-0.512064,22.035133,-21.386150
745,417761298,-12.940915,-29.146046,-12.347482,2.189109,-0.315904,1.652516,-7.283476,18.598763,-36.796452
746,417777965,-12.610198,-29.067606,-13.311696,2.311328,-0.397896,1.283128,-6.801757,14.892362,-48.031853
747,417794632,-12.058684,-29.080191,-14.424204,2.336502,-0.639771,1.055305,2.150577,10.857653,-56.928383
748,417811299,-11.232387,-29.160694,-15.671688,2.172709,-0.774747,0.968480,14.646559,7.610371,-64.789902
749,417827966,-10.135787,-29.300951,-17.051407,1.912993,-0.687763,1.169077,26.862492,4.272525,-72.320671
750,417844633,-8.900346,-29.484451,-18.532448,1.873796,-0.430296,1.308519,32.002438,1.101892,-77.949692
751,417861300,-7.633438,-29.690969,-20.105652,1.501392,-0.562202,1.253900,30.894533,-1.296397,-82.781914
752,417877967,-6.366386,-29.910601,-21.745689,1.287461,-0.841134,1.108263,28.602257,-3.503842,-86.128647
753,417894634,-5.026705,-30.152075,-23.444025,0.758663,-1.140343,0.934063,30.864344,-6.485660,-88.993034
754,417911301,-3.579768,-30.436289,-25.183878,0.352301,-1.292747,0.797552,35.637611,-11.062000,-90.934441
755,417927968,-2.065409,-30.755978,-26.990988,-0.266078,-1.523479,0.761352,37.154911,-15.380312,-93.937454
756,417944635,-0.504626,-31.114483,-28.879368,-0.476477,-1.581170,0.707616,36.882130,-20.140923,-97.422905
757,417961302,1.022479,-31.461775,-30.848194,-0.077075,-1.251817,0.486137,31.758600,-22.107346,-100.638382
758,417977969,2.394408,-31.752806,-32.873116,0.278346,-0.868703,0.401312,20.123753,-21.352501,-102.692101
759,417994636,3.528586,-31.965452,-34.889469,0.753513,-0.790858,0.293453,5.674972,-18.861153,-101.747169
760,418011303,4.499523,-32.095833,-36.851395,0.729035,-1.071757,-0.056110,-2.696062,-15.597340,-98.792091
761,418027970,5.450168,-32.183506,-38.715866,0.566483,-1.366961,-0.313210,-0.994163,-14.260103,-93.702271
762,418044637,6.485722,-32.275883,-40.439167,0.533731,-1.446948,-0.147955,8.467898,-15.407498,-86.208321
763,418061304,7.546430,-32.361176,-42.035831,0.744019,-1.075144,0.113461,13.902745,-15.765030,-79.525070
764,418077971,8.441906,-32.370468,-43.484730,1.211938,-1.017531,-0.006149,8.667127,-11.559029,-72.434959
765,418094638,9.115719,-32.264091,-44.774944,1.221995,-0.833759,-0.161019,0.518492,-4.466807,-65.426018
766,418111305,9.590351,-32.073467,-45.915127,0.948072,-0.801717,-0.067894,-6.473665,1.088316,-58.796619
767,418127972,9.881953,-31.820507,-46.892521,0.718288,-0.818686,0.062237,-12.064532,5.762190,-51.410557
768,418144639,10.032310,-31.520266,-47.703537,0.649605,-0.923908,0.129807,-15.059080,9.803050,-43.705265
769,418161306,10.067618,-31.129236,-48.344093,0.766661,-0.892768,-0.203972,-16.395668,16.596502,-36.222233
770,418177973,10.038888,-30.660152,-48.814236,0.777155,-1.105269,-0.550286,-14.742135,22.714304,-28.548378
771,418194640,9.999873,-30.101389,-49.122608,0.622883,-0.933651,-0.740644,-10.233068,29.467752,-21.352070
772,418211307,9.884358,-29.485466,-49.282009,0.365737,-0.626648,-0.530340,-10.218472,34.200787,-14.358965
773,418227974,9.598546,-28.807302,-49.307453,0.196188,-0.294966,-0.401639,-16.426991,39.113377,-8.001472
774,418244641,9.206037,-28.067739,-49.237820,0.088742,-0.590177,-0.372970,-20.094862,43.613544,-3.426008
775,418261308,8.894060,-27.277494,-49.055599,-0.078597,-0.951380,-0.649806,-12.174256,47.584190,2.301699
776,418277975,8.843667,-26.462301,-48.737637,-0.107624,-1.105876,-1.025497,7.068153,50.188465,9.470415
777,418294642,8.993269,-25.634541,-48.289886,-0.121649,-0.389968,-0.679776,22.245495,52.046631,16.338493
778,418311309,9.021379,-24.817190,-47.746601,-0.260821,0.525339,0.074301,17.053905,52.291595,21.638479
779,418327976,8.787792,-23.993679,-47.128536,-0.004165,0.499617,0.086802,2.783847,53.278347,25.906240
780,418344643,8.408220,-23.099560,-46.445835,0.264245,0.002893,-0.452330,-4.932106,57.891846,29.302946
781,418361310,8.150559,-22.142609,-45.672863,0.080890,-0.425393,-0.849398,3.858033,62.216999,34.289883
782,418377977,8.083191,-21.148596,-44.753208,-0.325222,-0.189108,-0.662847,17.793474,65.517685,42.547199
783,418394644,7.999741,-20.146292,-43.732567,-0.698210,0.928442,-0.473071,18.072178,66.794807,48.521252
784,418411311,7.777049,-19.176628,-42.687111,-0.444287,1.396792,-0.333694,9.232289,64.963150,50.719887
785,418427978,7.328722,-18.228823,-41.597767,0.193246,1.764878,-0.186510,-4.451559,63.733643,54.091637
786,418444645,6.740591,-17.293417,-40.431751,0.421809,1.526728,-0.285838,-12.457149,63.078594,59.451641
787,418461312,6.116130,-16.417883,-39.125465,0.344464,1.367403,-0.818723,-13.253494,59.814037,68.860214
788,418477979,5.563759,-15.545060,-37.691643,0.799885,0.993425,-1.422732,-7.969609,59.723263,77.149605
789,418494646,5.074232,-14.618689,-36.097248,0.865703,0.755853,-1.767321,-2.993798,63.114590,87.024353
790,418511313,4.675547,-13.642974,-34.283508,0.933297,0.604520,-1.602692,4.133532,66.507195,100.383453
791,418527980,4.417119,-12.556820,-32.247852,1.104854,1.047724,-1.264442,13.664333,73.599831,113.631645
792,418544647,4.239660,-11.375597,-29.939964,1.019385,1.554111,-1.471205,19.549639,80.098854,129.940079
793,418561314,4.122751,-10.109204,-27.356003,-0.172942,1.764300,-1.607024,23.369627,86.086769,146.588882
794,418577981,4.158814,-8.846284,-24.499241,-0.962107,2.200405,-2.046646,31.873396,86.977684,163.367096
795,418594648,4.427777,-7.639395,-21.391951,-1.891504,2.718411,-2.300616,44.349152,85.206520,178.790405
796,418611315,4.799572,-6.515972,-18.135256,-3.514676,3.758940,-0.066430,47.863987,81.957397,188.079895
797,418627982,4.951555,-5.610637,-14.904624,-5.224549,3.808216,1.579377,31.075129,69.666199,187.657974
798,418644649,4.913208,-4.973865,-11.898591,-5.762897,3.000746,2.031919,15.816715,52.651005,175.863663
799,418661316,4.803074,-4.608394,-9.283497,-5.705030,1.779356,1.415850,7.976761,34.219662,154.161667
800,418677983,4.530895,-4.572549,-7.173418,-5.438773,0.704587,1.139221,-4.718637,11.523898,125.830185
801,418694650,3.794580,-4.646135,-5.748168,-3.653110,0.441623,0.676596,-35.825237,0.878280,85.561050
802,418711317,2.327276,-4.529205,-5.105560,-2.135530,0.387388,-0.192722,-83.473236,8.139696,38.233456
803,418727984,0.506158,-4.178036,-5.080660,-1.569049,-0.529247,0.191023,-107.673325,20.175318,1.196746
804,418744651,-1.061450,-3.843992,-5.384896,-1.808071,-0.455592,0.528811,-93.850723,19.200184,-17.883743
805,418761318,-2.037251,-3.597616,-5.829512,-0.852721,-0.484338,0.067941,-58.794933,14.560288,-25.983824
806,418777985,-2.451905,-3.430294,-6.269193,-0.955003,-0.192310,-0.501094,-25.010654,10.124002,-25.691046
807,418794652,-2.366034,-3.355914,-6.727673,-0.782034,0.165115,-0.417302,5.010210,4.671161,-27.022284
808,418811319,-2.017292,-3.352135,-7.308115,-1.425546,0.085202,0.066453,20.372713,0.611980,-34.506351
809,418827986,-1.609513,-3.393850,-8.141012,-2.093935,0.066252,0.248906,23.012486,-1.871469,-49.714478
810,418844653,-1.252633,-3.454281,-9.308000,-2.630512,0.008550,0.472079,18.718287,-2.834392,-69.735252
811,418861320,-1.013164,-3.542321,-10.841059,-3.231552,0.197264,0.335025,10.245303,-4.429157,-91.671234
812,418877987,-0.972638,-3.678567,-12.721128,-3.677510,1.099510,0.398046,-3.178051,-7.195250,-112.477997
813,418894654,-1.303383,-3.880513,-14.862603,-3.381351,1.807477,0.021996,-26.816011,-10.551883,-128.196335
814,418911321,-2.004134,-4.086576,-17.178928,-2.836578,1.622920,-0.419731,-50.197834,-9.352288,-138.717728
815,418927988,-2.764037,-4.298047,-19.588512,-2.970925,0.706290,-0.815775,-54.658722,-7.683585,-144.365845
816,418944655,-3.193898,-4.600777,-22.039675,-3.987757,0.484178,-0.911619,-35.694862,-11.531032,-147.148621
817,418961322,-3.127131,-5.133209,-24.477983,-3.549649,1.317797,-0.495461,-6.897113,-24.881124,-147.089005
818,418977989,-3.033583,-5.735546,-26.916521,-1.781764,1.786472,-0.747512,-6.728838,-29.291294,-147.165756
819,418994656,-3.111678,-6.281354,-29.294159,-0.806933,1.795102,-0.543723,-18.099463,-26.133713,-143.204803
820,419011323,-3.269384,-6.795946,-31.574200,-0.625657,1.772203,-0.298108,-23.519941,-24.303862,-137.200317
821,419027990,-3.454092,-7.303843,-33.749409,-1.341234,1.743227,-0.492713,-25.579062,-23.869816,-130.870804
822,419044657,-3.489482,-7.898380,-35.804672,-1.751037,1.723881,-0.940053,-16.912241,-29.253120,-123.949333
823,419061324,-3.232893,-8.595709,-37.789032,-1.291876,0.802994,-1.275477,-0.159089,-35.912724,-119.862503
824,419077991,-2.702752,-9.326257,-39.667156,0.032848,0.449323,-0.600389,15.783376,-39.067261,-113.214645
825,419094658,-2.191462,-10.038717,-41.386143,0.643652,1.101870,0.197606,14.861472,-39.423222,-103.183792
826,419111325,-2.072781,-10.746742,-42.936420,0.370625,2.041451,0.203141,-8.126116,-40.103287,-92.789894
827,419127992,-2.309170,-11.435409,-44.351887,0.436680,1.530770,-0.695188,-28.988798,-39.160816,-84.641914
828,419144659,-2.634699,-12.068969,-45.690372,0.215384,0.465566,-1.147464,-34.357910,-35.645679,-79.973953
829,419161326,-2.773448,-12.705117,-46.912342,-0.159203,-0.344560,-1.108296,-22.521515,-35.804993,-73.115807
830,419177993,-2.507530,-13.412157,-47.965351,-0.649521,-0.713915,-0.444326,3.212780,-40.596878,-63.221100
831,419194660,-1.923348,-14.246017,-48.819878,-0.561489,-0.048138,-0.180090,24.332838,-49.122608,-51.468365
832,419211327,-1.307166,-15.157849,-49.503708,0.241052,0.393274,-0.267747,28.097904,-54.622551,-41.000084
833,419227994,-0.885097,-16.021118,-50.076546,0.598766,0.417142,-0.459109,17.627697,-52.205898,-33.876556
834,419244661,-0.581595,-16.894388,-50.538704,-0.146849,0.493707,0.041294,11.893060,-53.102608,-27.047966
835,419261328,-0.293686,-17.832392,-50.856220,-0.341034,0.385661,0.582701,13.128050,-57.191586,-18.397148
836,419277995,-0.082939,-18.809563,-50.981045,-0.025588,0.239487,0.521135,11.829447,-59.659538,-7.089639
837,419294662,-0.082407,-19.766243,-50.864571,0.876532,-0.113429,0.238903,3.878598,-58.463005,6.725689
838,419311329,-0.388466,-20.669601,-50.492844,1.231815,-0.144902,-0.143641,-9.119325,-55.337395,20.919859
839,419327996,-0.901815,-21.531843,-49.893627,0.827171,-0.570949,-0.319309,-16.324778,-53.155628,33.170097
840,419344663,-1.365281,-22.374516,-49.115364,0.181392,-0.994066,0.134689,-8.821542,-52.450066,42.512066
841,419361330,-1.664499,-23.191071,-48.168247,0.506159,-1.088364,0.595931,5.580593,-51.400795,51.288700
842,419377997,-1.994715,-23.944448,-47.023014,0.836863,-1.105974,0.551847,9.187521,-48.225899,61.713936
843,419394664,-2.494632,-24.611895,-45.658169,0.891541,-1.461707,-0.059538,5.201004,-43.971378,73.230217
844,419411331,-3.122922,-25.183174,-44.105801,0.658976,-1.852474,-0.449033,3.038134,-39.401325,82.908714
845,419427998,-3.692146,-25.721447,-42.417450,-0.013564,-2.264848,-0.436948,10.903473,-38.695866,89.590286
846,419444665,-4.050565,-26.268272,-40.644997,-0.434925,-2.365177,-0.118029,26.628811,-40.203335,93.355774
847,419461332,-4.238387,-26.851492,-38.837711,-0.325087,-2.056387,0.198420,38.741188,-42.923286,94.408882
848,419477999,-4.456114,-27.419203,-37.030087,0.219470,-1.884302,0.282051,37.929523,-42.289455,93.854477
849,419494666,-4.787906,-27.856222,-35.301647,1.182683,-1.885474,0.019320,29.726805,-34.545525,89.653534
850,419511333,-5.227686,-28.292116,-33.582447,0.646949,-1.881357,-0.218868,23.685171,-34.999088,88.575912
851,419528000,-5.463177,-28.866596,-31.883282,0.147288,-2.185045,0.398379,36.167187,-43.653934,86.117043
852,419544667,-5.314622,-29.584641,-30.262871,0.635605,-1.548475,1.257588,57.910133,-51.852077,80.615173
853,419561334,-5.065999,-30.366058,-28.710442,2.807539,-0.081225,1.403854,62.981945,-54.980690,76.301445
854,419578001,-5.289676,-31.042967,-27.156750,5.559566,1.203715,0.898315,35.701874,-48.663876,76.350891
855,419594668,-6.164912,-31.417791,-25.714758,6.061765,0.965953,0.043691,-6.143542,-30.730415,71.565781
856,419611335,-7.299285,-31.590145,-24.438211,4.731817,-0.547997,0.099551,-26.536573,-18.881142,63.848248
857,419628002,-8.103952,-31.637033,-23.347893,2.854341,-2.562312,0.455527,-12.492199,-11.197244,55.043583
858,419644669,-8.227436,-31.670908,-22.484781,2.157570,-2.750068,0.779174,21.263983,-9.202953,43.557316
859,419661336,-7.980214,-31.712128,-21.892826,2.691195,-1.277125,1.069166,34.992168,-7.628748,29.779522
860,419678003,-7.856487,-31.724920,-21.586018,2.878449,-0.223307,1.277870,18.602165,-3.827724,15.613553
861,419694670,-7.968616,-31.722504,-21.561306,2.229654,-0.536188,1.377110,-4.449798,-0.931304,1.482547
862,419711337,-8.089349,-31.773529,-21.819181,1.521280,-1.298498,1.227828,-13.887889,-2.088155,-13.240849
863,419728004,-8.019249,-31.915098,-22.338804,1.421882,-1.579989,0.912095,-10.744882,-5.587069,-27.198288
864,419744671,-7.753010,-32.138039,-23.089874,1.954741,-1.246676,0.791264,-6.424023,-8.888184,-39.465878
865,419761338,-7.426921,-32.389294,-24.038141,2.150357,-0.767661,0.923865,-9.306076,-9.461559,-49.466362
866,419778005,-7.121408,-32.639671,-25.156137,2.400697,-0.695085,0.993054,-16.226868,-8.604174,-57.796925
867,419794672,-6.804721,-32.852486,-26.439304,2.322853,-1.045346,0.766465,-21.147341,-5.682043,-65.606758
868,419811339,-6.352245,-33.034000,-27.847290,2.021391,-1.541618,0.541703,-17.298046,-3.544353,-71.456764
869,419828006,-5.665094,-33.202518,-29.350456,1.663709,-1.755223,0.446468,-6.554859,-2.988935,-75.960732
870,419844673,-4.778535,-33.349468,-30.926212,1.844063,-1.416627,0.559569,2.809654,-2.417739,-79.298912
871,419861340,-3.876909,-33.433235,-32.575256,2.245967,-0.840210,0.717371,1.133114,0.398293,-82.534767
872,419878007,-3.163111,-33.355694,-34.264439,2.358565,-0.539370,0.862900,-11.469040,9.020679,-83.951286
873,419894674,-2.694673,-33.140213,-35.936165,1.822740,-0.715452,0.883119,-25.404448,16.386705,-82.890457
874,419911341,-2.358039,-32.823566,-37.561535,1.327640,-1.097715,0.755746,-31.411860,21.779594,-80.663483
875,419928008,-1.969107,-32.450657,-39.140095,0.804736,-1.588900,0.456793,-26.268534,24.567993,-78.630638
876,419944675,-1.413239,-32.061699,-40.655617,0.457672,-1.857178,0.096321,-13.704739,24.800606,-75.951027
877,419961342,-0.692939,-31.680593,-42.096733,0.512795,-1.695213,0.083336,-0.963967,23.421101,-72.775162
878,419978009,0.047760,-31.278250,-43.465603,0.814781,-1.359488,0.266817,3.026256,23.747828,-69.687599
879,419994676,0.679177,-30.835501,-44.763966,0.917978,-1.117893,0.555014,-0.831096,25.359007,-66.682144
880,420011343,1.138913,-30.347132,-45.992901,1.070711,-1.037579,0.760600,-8.470393,27.512577,-63.711105
881,420028010,1.380247,-29.789989,-47.127583,1.145140,-1.131788,0.616411,-18.162661,31.350777,-59.420746
882,420044677,1.458158,-29.174702,-48.159096,0.891990,-1.342006,0.416433,-24.319016,34.802261,-54.554829
883,420061344,1.540404,-28.540916,-49.072636,0.359393,-1.688937,0.145208,-20.056131,35.993393,-48.766380
884,420078011,1.750519,-27.916338,-49.857483,0.091184,-1.841536,0.021407,-8.202121,35.507538,-42.330315
885,420094678,2.066461,-27.308846,-50.509064,-0.052024,-1.538926,0.136208,2.301776,34.519016,-35.621609
886,420111345,2.394448,-26.712408,-51.024384,-0.066617,-1.126755,0.326755,7.103957,33.933868,-28.705992
887,420128012,2.691310,-26.106333,-51.408623,0.167645,-1.150639,0.141121,9.025306,34.661846,-22.030762
888,420144679,3.021849,-25.472845,-51.655697,0.203186,-1.264495,-0.192386,14.851339,36.547958,-15.016563
889,420161346,3.404299,-24.813768,-51.755909,0.176714,-1.326451,-0.496712,21.861929,38.431183,-7.444960
890,420178013,3.764850,-24.100605,-51.725651,-0.007901,-0.813606,-0.639934,23.856373,42.066071,-0.822610
891,420194680,4.007879,-23.355844,-51.614044,0.010577,-0.651353,-0.535498,18.750399,44.255863,3.289473
892,420211347,4.066422,-22.541861,-51.406052,0.385360,-0.904102,-0.515843,9.854171,48.785259,8.224471
893,420228014,3.965570,-21.621466,-51.077427,0.563337,-1.459543,-1.157335,2.839226,55.627945,14.557070
894,420244681,3.966796,-20.618917,-50.616592,0.078816,-1.475067,-1.413656,11.516893,61.056515,21.767790
895,420261348,4.140738,-19.671560,-50.000088,-0.518661,-0.666332,-0.991809,24.660473,58.420799,30.816669
896,420278015,4.377482,-18.857435,-49.234612,-0.387929,-0.260925,-0.881857,30.846661,51.198307,39.801086
897,420294682,4.534749,-18.079741,-48.338173,0.268305,-0.715116,-1.734014,27.968132,49.748520,47.427307
898,420311349,4.733904,-17.251554,-47.341896,0.322628,-0.987275,-1.930387,31.586302,53.394569,52.944611
899,420328016,5.047106,-16.386711,-46.237560,0.028490,-0.295541,-1.195329,39.465931,56.374355,58.956944
900,420344683,5.355133,-15.539610,-44.991898,-0.204642,0.285961,-0.798162,40.542130,56.395000,67.139519
901,420361350,5.639263,-14.702401,-43.623974,-0.198352,0.483599,-1.143406,39.967686,56.851982,74.240547
902,420378017,5.975583,-13.838058,-42.162060,-0.461680,0.604747,-1.405843,43.313923,59.452194,79.507378
903,420394684,6.429205,-13.013067,-40.583538,-0.036298,1.478648,-0.887607,50.724625,58.414047,86.418213
904,420411351,6.841442,-12.208086,-38.888020,0.585414,2.127124,-0.423462,48.462875,58.691521,93.214005
905,420428018,7.051759,-11.363400,-37.024883,-0.110661,2.074445,-0.546296,36.970455,62.782360,102.683235
906,420444685,7.184741,-10.477050,-34.977161,-0.955816,2.123814,-0.763701,32.773758,66.950279,113.304688
907,420461352,7.480415,-9.683779,-32.820614,-1.315459,2.434256,-0.587523,41.907803,62.687523,120.467529
908,420478019,8.012838,-9.074702,-30.599068,-1.108152,3.118054,-0.004612,55.186619,53.149883,125.574654
909,420494686,8.677206,-8.727482,-28.263533,-1.294928,3.721651,0.628957,63.060123,39.908524,134.146835
910,420511353,9.230576,-8.547098,-25.870441,-1.715172,4.146205,0.865239,56.278290,31.977402,138.737106
911,420528020,9.251952,-8.280535,-23.441360,-0.767253,4.423579,0.307425,24.120951,38.117794,139.933884
912,420544687,8.510601,-7.819233,-20.822006,0.031030,4.620169,-1.212500,-20.959917,50.536762,149.677643
913,420561354,7.396887,-7.257837,-17.923820,-1.595908,3.427939,-1.453192,-42.498978,56.371250,166.278961
914,420578021,6.687990,-6.724304,-14.994199,-4.202499,2.112913,-0.670745,-19.639086,52.309673,169.442734
915,420594688,6.670179,-6.522354,-12.224590,-4.268996,1.123333,-0.325346,19.588480,30.370745,162.753998
916,420611355,6.781588,-6.415128,-9.925551,-5.841780,-1.670677,-0.239887,23.716070,21.566105,135.585388
917,420628022,7.033470,-6.261332,-8.785937,-6.855879,-5.857576,-1.306694,24.162708,16.440477,66.575249
918,420644689,8.037716,-6.229093,-8.805530,-3.979354,-2.687680,-0.783086,61.650272,0.851589,-1.194772
919,420661356,8.786155,-6.130905,-9.488997,-1.391575,2.241255,1.060537,42.025711,-1.060379,-40.976242
920,420678023,8.334494,-5.888127,-10.263632,-0.280897,3.035264,1.261002,-30.435753,6.595006,-47.657185
921,420694690,7.382849,-5.537182,-10.903074,-0.464656,0.567726,-0.355072,-59.396557,14.708532,-40.474419
922,420711357,7.270522,-5.350180,-11.408757,-0.767455,-0.656938,-1.091530,-8.099983,6.344898,-31.165880
923,420728024,7.890489,-5.319436,-11.852333,0.228061,1.390132,0.357923,36.242744,-2.600284,-26.288727
924,420744691,8.320010,-5.264011,-12.249921,0.682664,2.988164,1.439800,25.086250,-0.989896,-23.761753
925,420761358,8.254162,-5.097400,-12.716120,-0.103381,2.505196,1.573160,-4.971056,4.944489,-28.781677
926,420778025,7.924351,-4.929261,-13.369988,-1.598324,1.195991,1.003403,-21.718834,3.554358,-39.885040
927,420794692,7.686865,-4.847605,-14.299032,-2.268703,0.104580,0.555120,-17.503418,-3.628646,-55.460873
928,420811359,7.654912,-4.910083,-15.512436,-2.956721,0.097774,0.555813,-6.611543,-14.343842,-71.160789
929,420828026,7.685167,-5.101227,-17.016253,-2.726819,1.019764,0.590119,-4.557022,-24.316128,-87.318367
930,420844693,7.493123,-5.344251,-18.748095,-2.886288,1.762972,0.333637,-19.479103,-29.081432,-100.414146
931,420861360,7.212805,-5.645306,-20.701111,-2.974839,1.252587,-0.204199,-26.537451,-33.813072,-113.137138
932,420878027,7.058555,-5.997403,-22.847874,-3.940759,1.222413,-0.438720,-20.815868,-37.858456,-124.289749
933,420894694,7.215336,-6.500492,-25.138636,-4.059686,1.643461,-0.358863,-4.049071,-47.915066,-131.584106
934,420911361,7.466588,-7.141059,-27.495724,-2.717160,2.704847,-0.109323,-0.213242,-57.060734,-134.124466
935,420928028,7.445445,-7.821494,-29.822447,-1.004377,2.858381,-0.183790,-17.934519,-59.451565,-131.707474
936,420944695,7.082748,-8.410852,-32.082039,-1.406680,2.661223,-0.392385,-39.390884,-53.064438,-128.429077
937,420961362,6.587382,-8.980035,-34.335320,-2.361170,2.605080,-0.292338,-48.649364,-50.836456,-128.387512
938,420978029,6.199254,-9.680119,-36.601078,-2.403701,1.792961,-0.319741,-43.814621,-57.712715,-128.394089
939,420994696,6.111521,-10.480602,-38.824932,-1.548774,1.136806,-0.434681,-27.103397,-62.876545,-125.223244
940,421011363,6.224374,-11.292099,-40.931797,-0.842941,0.961381,-0.501393,-15.585247,-62.788517,-117.946587
941,421028030,6.387465,-12.097478,-42.883919,-0.963544,1.687862,-0.577349,-12.434066,-61.673756,-108.452797
942,421044697,6.440158,-12.943378,-44.735027,-0.757577,2.340840,-0.361740,-19.391092,-63.598091,-101.837097
943,421061364,6.344138,-13.817152,-46.534546,0.048132,1.223889,-0.629999,-29.220280,-64.849754,-98.310135
944,421078031,6.297576,-14.569564,-48.251495,0.593935,-0.056652,-0.998426,-26.524937,-56.922268,-94.053726
945,421094698,6.431536,-15.203773,-49.799820,0.384028,0.128730,-0.976346,-14.299522,-48.824669,-84.770752
946,421111365,6.747164,-15.824513,-51.148617,0.304082,1.018895,-0.566386,-1.178113,-46.998981,-72.952248
947,421128032,6.975944,-16.476456,-52.287479,0.607642,1.745174,-0.387483,-3.749329,-47.730953,-60.251354
948,421144699,6.986018,-17.144510,-53.259693,1.236067,0.955034,-0.664728,-14.736527,-47.627747,-50.314499
949,421161366,6.956765,-17.685894,-54.094265,1.560343,-0.740396,-1.244399,-15.215382,-39.096401,-43.241375
950,421178033,7.033974,-18.032486,-54.807865,1.249925,-1.194162,-1.121084,-6.973546,-26.652843,-37.677734
951,421194700,7.119102,-18.276480,-55.402519,0.019431,-1.310460,-0.596232,-4.484255,-19.747541,-31.602757
952,421211367,7.237419,-18.484699,-55.785061,-0.236136,-1.261576,-0.208088,1.389422,-16.155144,-19.812580
953,421228034,7.454616,-18.694767,-55.926632,0.040579,-0.908918,-0.271645,11.854066,-14.564194,-6.139501
954,421244701,7.764574,-18.949263,-55.930321,0.008102,-0.616655,-0.137253,20.056852,-16.194628,2.046447
955,421261368,8.040663,-19.316803,-55.809830,0.024743,-0.697127,0.078170,20.466528,-21.933243,10.028713
956,421278035,8.202167,-19.701426,-55.580902,0.356203,-1.154549,0.155517,15.809360,-22.043827,16.307503
957,421294702,8.139057,-20.078461,-55.251362,0.209772,-1.243786,0.097914,4.473259,-20.773438,21.850315
958,421311369,7.861047,-20.474878,-54.807648,-0.213017,-1.422181,0.187839,-5.921222,-21.097467,28.267859
959,421328036,7.583358,-20.975142,-54.208843,-0.619595,-1.313818,0.033698,-2.412235,-26.244467,37.556198
960,421344703,7.439599,-21.648798,-53.455322,-0.505996,-1.391508,0.035941,9.342870,-35.579384,47.264145
961,421361370,7.293458,-22.455126,-52.502674,0.305748,-1.205987,0.124481,14.229798,-42.198990,58.962032
962,421378037,6.993819,-23.380001,-51.336643,0.751323,-0.703600,0.367792,10.803728,-48.055069,71.058334
963,421394704,6.515934,-24.417692,-50.008701,0.300317,-0.624831,0.576196,5.141707,-54.264267,79.878258
964,421411371,5.886917,-25.523853,-48.569023,-0.026699,-0.831616,0.885392,0.260382,-58.523746,85.231674
965,421428038,5.152057,-26.628122,-47.053211,0.364743,-1.479978,0.323923,-2.579275,-59.091534,87.896935
966,421444705,4.279873,-27.673651,-45.364407,1.141495,-1.831350,-0.160788,-4.556837,-56.102119,95.223061
967,421461372,3.207351,-28.648987,-43.429882,1.100798,-1.760038,-0.249862,-8.035872,-52.703621,106.139931
968,421478039,1.978392,-29.599335,-41.245018,0.882362,-1.484989,0.185255,-8.399458,-52.764187,117.181786
969,421494706,0.713004,-30.523439,-38.925976,0.799326,-1.188708,0.333893,-4.689403,-53.579948,121.894356
970,421511373,-0.541924,-31.373201,-36.501991,1.837296,-0.990875,0.276855,1.029626,-51.773396,125.005356
971,421528040,-1.890815,-32.036987,-34.009762,2.918453,-0.919062,-0.275086,-0.818108,-43.489746,126.540741
972,421544707,-3.422250,-32.449265,-31.446293,3.453511,-1.099353,-0.972166,-8.303707,-31.704952,128.999710
973,421561374,-5.041875,-32.649689,-28.888992,2.779914,-1.122791,-0.655633,-13.104657,-22.494892,128.294586
974,421578041,-6.477682,-32.746944,-26.484617,1.751512,-0.979454,0.493767,-6.701440,-18.939997,120.402374
975,421594708,-7.559135,-32.795143,-24.416590,1.686359,-1.326455,0.943114,3.783783,-16.562798,103.398788
976,421611375,-8.302261,-32.778309,-22.764030,2.556187,-1.630042,0.813673,10.610602,-11.440071,82.901764
977,421628042,-8.940867,-32.622944,-21.640287,3.196095,-1.260071,1.091487,-0.385348,-0.220835,57.697552
978,421644709,-9.545774,-32.411770,-21.104847,2.937992,-1.235867,1.977631,-17.520798,7.234496,28.978718
979,421661376,-9.918963,-32.209831,-21.114252,2.555753,-2.118756,2.705913,-21.189005,11.112033,1.785907
980,421678043,-9.853332,-32.021454,-21.581167,2.772396,-2.589045,2.567953,-9.448959,14.308174,-21.227617
981,421694710,-9.403852,-31.845846,-22.413782,2.958779,-1.885063,2.331215,2.052711,16.591314,-39.830551
982,421711377,-8.824444,-31.708801,-23.525896,3.110156,-0.829336,2.110444,1.134009,16.226898,-54.498577
983,421728044,-8.266409,-31.609739,-24.830423,3.362989,-0.514880,1.766801,-6.093920,14.910277,-64.790565
984,421744711,-7.708278,-31.451036,-26.305567,3.502273,-0.458494,1.376145,-11.295337,19.056498,-73.171768
985,421761378,-7.123737,-31.226816,-27.920128,3.308689,-0.647340,0.912834,-13.813817,23.172771,-80.093590
986,421778045,-6.399055,-30.943354,-29.611275,3.103734,-1.305128,0.367743,-7.416438,26.283394,-84.069481
987,421794712,-5.417862,-30.589678,-31.310705,2.859174,-1.585787,0.165423,8.199358,29.299498,-84.741745
988,421811379,-4.186594,-30.215378,-32.971535,2.127137,-1.508344,0.325756,24.929609,28.756851,-83.541550
989,421828046,-2.782873,-29.847046,-34.597172,1.997637,-1.360825,0.485072,36.888023,26.383772,-82.722763
990,421844713,-1.414262,-29.443108,-36.186653,2.098831,-1.345826,0.313847,36.422264,26.452959,-81.720390
991,421861380,-0.195233,-28.964582,-37.715897,2.232828,-1.548915,0.101399,29.847654,29.038908,-79.460320
992,421878047,0.846805,-28.387035,-39.167206,2.078929,-1.534864,0.012344,22.209131,33.431129,-76.374832
993,421894714,1.710100,-27.752674,-40.529308,1.437498,-1.461112,0.026751,14.810910,35.663704,-72.726677
994,421911381,2.398764,-27.104151,-41.776455,0.920560,-1.431645,0.159272,8.317993,35.731693,-67.553642
995,421928048,2.929829,-26.476353,-42.907501,0.525609,-1.441140,0.109318,2.743008,34.042320,-62.049255
996,421944715,3.296001,-25.837881,-43.946796,0.538802,-1.499166,-0.057773,-4.052596,34.447254,-57.756878
997,421961382,3.441761,-25.172016,-44.907211,0.296213,-1.621538,-0.355618,-14.599788,36.064381,-54.054729
998,421978049,3.482466,-24.500444,-45.766911,-0.054165,-1.700078,-0.341063,-17.756128,36.636261,-48.948795
999,421994716,3.608884,-23.866919,-46.506390,-0.597573,-1.581794,-0.338326,-9.122652,34.681068,-42.540607
1000,422011383,3.891407,-23.306767,-47.104877,-0.796433,-1.324812,-0.347234,4.053375,30.631289,-34.831272
1001,422028050,4.223643,-22.773540,-47.587929,-0.347029,-1.064820,-0.328926,10.064426,29.274252,-28.666031
1002,422044717,4.428024,-22.215467,-47.974594,-0.082391,-0.844456,-0.350579,4.862591,31.020510,-23.697495
1003,422061384,4.542511,-21.621656,-48.256092,-0.081852,-0.942645,-0.261500,2.040920,33.543526,-18.208353
1004,422078051,4.726985,-21.006773,-48.397858,-0.385428,-0.797895,-0.395503,9.454279,35.382694,-10.682804
1005,422094718,5.073020,-20.402849,-48.388706,-0.384653,-0.729169,-0.652359,22.435987,35.397694,-2.387067
1006,422111385,5.439371,-19.739199,-48.251534,-0.203937,-0.211449,-0.443577,26.287893,39.610355,4.243418
1007,422128052,5.599939,-19.006908,-48.002674,0.039286,0.513415,-0.227692,16.071341,44.338310,9.985738
1008,422144719,5.547368,-18.189520,-47.662113,0.363733,0.682307,-0.541550,4.847396,49.939663,14.705331
1009,422161386,5.460031,-17.284153,-47.224384,0.104552,0.220481,-1.101269,4.245069,55.716141,19.883915
1010,422178053,5.610675,-16.307640,-46.668861,-0.735926,-0.183937,-1.216876,20.154528,60.639137,26.301756
1011,422194720,5.940311,-15.291554,-46.019478,-0.888775,0.371266,-0.375872,31.874424,63.669537,31.358713
1012,422211387,6.152961,-14.249977,-45.285965,-0.425147,1.080542,0.105812,25.471106,65.866737,35.928787
1013,422228054,6.091505,-13.126142,-44.528851,-0.164075,1.060515,-0.202327,8.555612,70.984818,36.887131
1014,422244721,5.876850,-11.934402,-43.756393,-0.466196,0.566017,-0.563184,-1.329537,75.060165,37.737122
1015,422261388,5.825573,-10.727644,-42.935089,-0.836467,-0.071866,-0.853616,8.101378,76.179260,40.880039
1016,422278055,6.163790,-9.645453,-41.987244,-1.238452,-0.311082,-0.797732,31.849497,69.644104,49.082607
1017,422294722,6.857189,-8.642384,-40.948189,-1.175670,-0.292527,-0.360764,53.014179,65.993935,54.523842
1018,422311389,7.591852,-7.733716,-39.842613,-1.066175,0.599206,0.000424,55.036060,61.559265,58.472408
1019,422328056,8.210703,-6.892699,-38.761063,-0.891992,0.726925,-0.043206,46.904133,58.039825,57.008923
1020,422344723,8.739343,-6.128408,-37.674641,-0.422671,0.358274,-0.268972,40.625134,54.106022,57.490761
1021,422361390,9.333460,-5.410466,-36.545345,-0.597876,0.143191,-0.444189,43.976341,52.331123,60.002121
1022,422378057,10.131034,-4.797936,-35.346622,-1.616253,-0.190770,-0.686404,55.773354,47.530479,64.585922
1023,422394724,11.284305,-4.341054,-34.085648,-2.238035,0.128951,-0.500953,76.748856,40.140541,69.200775
1024,422411391,12.701213,-4.066614,-32.846249,-1.612143,0.691064,-0.052649,91.995781,30.702110,69.313507
1025,422428058,14.084364,-3.865761,-31.645285,-0.387782,0.939287,-0.219430,89.506538,27.550882,67.329018
1026,422444725,15.244000,-3.660347,-30.405066,0.875638,1.471502,0.070733,75.996101,29.892265,68.901520
1027,422461392,15.989053,-3.395044,-29.047493,0.468323,1.313621,-0.032092,51.246319,36.385197,74.202026
1028,422478059,16.538036,-3.088950,-27.571486,-2.005503,0.627871,-0.625749,39.477184,41.558132,79.925087
1029,422494726,17.429386,-3.020478,-26.050974,-1.823293,1.013386,0.046574,59.873741,29.698099,86.117653
1030,422511393,18.434923,-3.219342,-24.511272,0.847835,2.658366,0.718506,66.892578,16.199957,91.630043
1031,422528060,18.637852,-3.391396,-22.685947,2.872948,4.211949,1.067286,20.018627,24.118645,107.138733
1032,422544727,17.882696,-3.417629,-20.514675,-0.030912,3.569877,1.222059,-36.050228,38.401974,124.186310
1033,422561394,16.888084,-3.548948,-18.275633,-2.644975,2.221236,0.974549,-49.997543,31.692905,130.522705
1034,422578061,16.243912,-4.106822,-16.051161,-2.320237,2.795590,-0.047965,-28.227793,5.024664,137.390091
1035,422594728,15.328623,-4.577738,-13.881751,-0.953295,3.282742,0.202045,-43.552612,7.248069,132.792068
1036,422611395,13.630331,-4.797686,-11.854228,-1.833626,2.889034,0.054385,-90.449394,16.657965,120.909882
1037,422628062,11.551723,-4.787808,-10.182175,-3.429990,0.424075,-0.006489,-114.836327,21.484030,97.662659
1038,422644729,9.642787,-4.883948,-9.024214,-3.532824,-1.259276,-1.688664,-107.184769,6.163391,69.334755
1039,422661396,8.164431,-4.795320,-8.406741,-1.964058,-1.535692,-2.220675,-84.079170,10.058106,35.872944
1040,422678063,7.241045,-4.593547,-8.238108,-2.228784,-1.632199,-1.124055,-53.073944,12.434156,8.594260
1041,422694730,7.041749,-4.455919,-8.380098,-2.124604,-0.696678,-0.268882,-11.123760,6.217098,-9.230339
1042,422711397,7.229522,-4.398358,-8.588807,-1.016500,1.067253,-0.192397,11.808946,0.949675,-12.594188
1043,422728064,7.359806,-4.316683,-8.756563,-0.624296,1.559628,-0.021968,8.558360,2.656678,-10.352798
1044,422744731,7.340041,-4.228190,-8.970104,-0.999457,1.448779,0.038934,-0.638602,2.699151,-13.125261
1045,422761398,7.149000,-4.100199,-9.396204,-1.424189,0.716883,0.152745,-11.820793,3.466759,-26.035461
1046,422778065,6.842428,-3.918557,-10.121784,-1.663274,0.167620,0.185286,-19.941343,4.587779,-44.202728
1047,422794732,6.514629,-3.711662,-11.151386,-2.225878,0.103070,0.348701,-22.280207,4.215936,-62.435452
1048,422811399,6.085285,-3.520597,-12.480158,-2.775637,0.681215,0.451767,-29.288464,1.712029,-80.114464
1049,422828066,5.403172,-3.353423,-14.115062,-2.889477,0.980678,-0.025255,-45.304367,-0.779798,-98.199707
1050,422844733,4.546338,-3.171952,-16.027452,-2.928891,0.659955,-0.372889,-56.434170,-0.054968,-114.839005
1051,422861400,3.760046,-3.105543,-18.096966,-3.689199,0.557744,-0.199700,-52.467422,-5.980780,-123.716034
1052,422878067,3.300350,-3.181488,-20.294600,-3.199613,1.084841,-0.184309,-33.301167,-13.639379,-130.898438
1053,422894734,2.922622,-3.373697,-22.561438,-3.054922,1.776424,-0.366175,-28.926245,-19.878120,-134.729767
1054,422911401,2.426034,-3.591100,-24.900871,-2.710198,1.849559,-0.903667,-36.804501,-20.568169,-139.113815
1055,422928068,1.764501,-3.784804,-27.304417,-2.621299,2.038661,-1.022792,-47.447346,-17.885368,-143.162598
1056,422944735,1.132434,-4.057478,-29.685501,-1.832553,2.361982,-0.445896,-46.171223,-20.974751,-141.840607
1057,422961402,0.485096,-4.380358,-31.993710,-0.651054,1.963833,0.237694,-47.505798,-22.343298,-137.598907
1058,422978069,-0.123659,-4.714919,-34.149029,-0.957961,1.134354,-0.168711,-45.256771,-21.506264,-128.618881
1059,422994736,-0.522046,-5.092595,-36.159714,-1.278628,1.162224,-0.952269,-32.693253,-23.011250,-120.096649
1060,423011403,-0.701242,-5.551706,-38.073372,-1.417424,1.677342,-1.013659,-19.877592,-27.356350,-114.382355
1061,423028070,-0.871222,-6.085721,-39.928814,-0.879741,1.643094,-0.385302,-19.958698,-31.553757,-110.953659
1062,423044737,-1.180994,-6.628146,-41.705387,-0.444674,1.188280,-0.031013,-28.859776,-31.682390,-106.278442
1063,423061404,-1.519922,-7.164432,-43.380138,-0.353221,0.578636,-0.270823,-30.870560,-30.858215,-100.262352
1064,423078071,-1.790807,-7.686049,-44.941906,-0.350430,0.463909,-0.785937,-26.829922,-29.641161,-93.560028
1065,423094738,-1.914421,-8.251385,-46.367424,-0.379956,0.559701,-0.906164,-17.739500,-32.205162,-85.534294
1066,423111405,-1.888859,-8.887899,-47.639282,-0.093472,0.569329,-0.898158,-8.300789,-36.707317,-76.461914
1067,423128072,-1.850019,-9.565061,-48.769394,0.320469,0.303121,-0.954069,-7.003767,-39.465519,-67.998123
1068,423144739,-1.870579,-10.231030,-49.752411,0.680113,-0.152899,-0.908566,-9.833623,-39.090767,-59.148121
1069,423161406,-1.989317,-10.858449,-50.579815,0.525318,-0.158273,-0.675161,-14.669800,-37.017254,-49.824219
1070,423178073,-2.134020,-11.501458,-51.244835,0.230513,-0.167597,-0.702795,-14.879511,-38.181705,-40.287720
1071,423194740,-2.204451,-12.153960,-51.772850,0.136849,-0.618975,-0.827116,-9.179575,-38.980629,-32.249893
1072,423211407,-2.157095,-12.873837,-52.170551,0.252792,-1.118304,-1.057752,-0.788468,-43.304295,-24.706444
1073,423228074,-1.998811,-13.602082,-52.420010,0.231807,-1.509306,-0.637888,7.611969,-44.162857,-15.928613
1074,423244741,-1.778947,-14.373567,-52.537632,-0.276514,-1.078869,0.115719,13.030298,-47.058826,-8.156075
1075,423261408,-1.512717,-15.239322,-52.531826,-0.197068,-0.577735,0.396001,17.608545,-52.950802,-0.944952
1076,423278075,-1.304637,-16.210258,-52.407104,0.289527,-0.368926,0.369480,16.059963,-59.431847,5.981562
1077,423294742,-1.313062,-17.270029,-52.138195,0.888618,-0.274394,0.335714,5.687965,-64.936386,14.203848
1078,423311409,-1.469526,-18.381441,-51.723988,0.775228,-0.626797,0.088316,-0.236089,-68.250702,22.241816
1079,423328076,-1.467615,-19.550241,-51.191719,0.079703,-1.052589,0.039540,12.035573,-71.886963,28.603151
1080,423344743,-1.145603,-20.804995,-50.513950,-0.041959,-0.974535,0.242308,34.887798,-77.141396,36.650772
1081,423361410,-0.744786,-22.064157,-49.675571,0.459711,-0.680636,0.330999,43.970745,-77.314857,45.775696
1082,423378077,-0.704196,-23.206022,-48.691540,0.769099,-0.693399,0.054904,26.696995,-70.196022,53.827244
1083,423394744,-1.092010,-24.209200,-47.516670,0.258789,-0.845165,0.205295,6.611649,-62.192726,63.794281
1084,423411411,-1.492689,-25.180620,-46.182037,-0.377289,-1.023334,0.543766,10.951637,-60.907005,71.623901
1085,423428078,-1.726988,-26.119410,-44.772335,0.125892,-1.522144,0.709864,24.091276,-59.442196,74.833824
1086,423444745,-1.874378,-26.963634,-43.280350,0.898704,-1.947863,0.584324,32.693218,-54.137650,78.651131
1087,423461412,-2.188522,-27.621477,-41.696617,2.144716,-1.645963,0.355282,26.258543,-43.426811,83.188766
1088,423478079,-2.957267,-28.025673,-40.081524,3.074747,-1.140219,0.152561,0.639381,-29.056253,84.720688
1089,423494746,-4.254172,-28.067507,-38.505947,4.220484,-0.355670,0.583512,-31.835180,-8.727173,83.304779
1090,423511413,-6.087345,-27.822824,-36.957523,4.226749,0.217270,0.673916,-64.927849,6.257802,83.261589
1091,423528080,-8.123800,-27.504467,-35.317619,3.569260,-0.646302,0.079554,-74.987350,7.216813,89.045204
1092,423544747,-9.803377,-27.180523,-33.638275,2.973821,-2.269335,-0.737732,-52.983273,4.304794,91.645615
1093,423561414,-10.735302,-26.880692,-32.004543,2.632712,-2.774453,-0.657951,-9.860375,1.197985,89.331299
1094,423578081,-11.111662,-26.578918,-30.499613,2.825328,-1.762341,0.393333,19.538467,1.568997,82.823723
1095,423594748,-11.402188,-26.281336,-29.217648,2.599868,-0.821250,1.494061,18.310104,3.149237,71.247559
1096,423611415,-11.819634,-25.992443,-28.264915,2.308865,-0.970383,1.863269,1.638564,5.741543,53.967949
1097,423628082,-12.253908,-25.724886,-27.707987,1.949565,-1.894081,1.624637,-9.978609,8.527317,32.970402
1098,423644749,-12.563412,-25.512117,-27.553947,1.753124,-2.171022,1.523604,-13.069627,9.784173,11.096607
1099,423661416,-12.769420,-25.395712,-27.758430,1.951691,-1.760396,1.593353,-16.126072,8.358850,-9.062298
1100,423678083,-12.943070,-25.372808,-28.271910,2.133207,-1.271264,1.669882,-22.117535,6.655675,-26.615004
1101,423694750,-13.089850,-25.455448,-29.024849,2.308126,-1.112355,1.502439,-26.686165,3.490758,-40.655792
1102,423711417,-13.159961,-25.614136,-29.956944,2.481975,-1.271849,1.039240,-26.806864,1.325325,-51.087399
1103,423728084,-13.040639,-25.818947,-31.020906,2.562989,-1.634818,0.643448,-19.036612,0.215284,-58.581371
1104,423744751,-12.667376,-26.039112,-32.196957,2.521770,-1.627834,0.578516,-6.954515,0.395255,-64.583427
1105,423761418,-12.099310,-26.262110,-33.448200,2.508774,-1.378363,0.714958,2.495685,0.550727,-68.467445
1106,423778085,-11.448369,-26.452986,-34.746544,2.458850,-1.267449,0.779248,5.968972,2.206426,-70.442154
1107,423794752,-10.775846,-26.576086,-36.072491,2.363010,-1.160104,0.850692,6.329786,5.655674,-71.049194
1108,423811419,-10.121101,-26.635504,-37.431149,2.008460,-1.219030,0.864777,4.266182,8.902962,-72.095192
1109,423828086,-9.470775,-26.626068,-38.809544,1.729662,-1.414030,0.720458,3.436240,12.332570,-72.523849
1110,423844753,-8.852185,-26.522812,-40.189926,1.679130,-1.599997,0.359742,1.548209,17.113192,-71.909897
1111,423861420,-8.302966,-26.306890,-41.544369,1.423352,-1.514955,0.206015,-1.717428,22.875118,-69.803452
1112,423878087,-7.821395,-26.000996,-42.828701,0.835428,-1.304934,0.221449,-3.592233,27.088163,-65.679962
1113,423894754,-7.333726,-25.661135,-44.013611,0.290418,-1.417935,0.073235,-0.238548,27.871065,-60.511486
1114,423911421,-6.760845,-25.306974,-45.097466,0.054705,-1.627858,-0.102116,7.871358,27.513390,-55.422184
1115,423928088,-6.127441,-24.921152,-46.090473,0.218505,-1.721885,-0.228642,14.195174,28.283743,-50.781368
1116,423944755,-5.536631,-24.461411,-47.014305,0.398532,-1.459310,-0.164143,13.773479,31.789272,-47.072678
1117,423961422,-5.088798,-23.934992,-47.890171,0.435723,-1.267146,0.082884,6.808536,35.121067,-44.579819
1118,423978089,-4.776875,-23.355913,-48.686386,0.346778,-1.192192,0.149918,1.033874,37.615387,-40.389786
1119,423994756,-4.553580,-22.729073,-49.392754,0.176896,-1.304396,0.109522,-1.712137,39.897377,-35.589413
1120,424011423,-4.362459,-22.063715,-49.993633,0.154768,-1.456172,-0.130710,-0.789557,41.633514,-29.907469
1121,424028090,-4.151142,-21.346285,-50.513783,0.059395,-1.505270,-0.097445,2.617188,44.324959,-25.502018
1122,424044757,-3.957446,-20.594616,-50.926605,0.057474,-1.033693,0.065208,4.238971,45.871346,-19.663300
1123,424061424,-3.760928,-19.846136,-51.230553,-0.067754,-0.850152,0.201730,6.970891,45.209301,-13.833080
1124,424078091,-3.451769,-19.114946,-51.399647,-0.191399,-1.071797,0.129630,16.649467,43.638115,-6.569773
1125,424094758,-2.933188,-18.407850,-51.403606,-0.211666,-0.977668,0.014663,32.523430,41.626698,2.351775
1126,424111425,-2.264538,-17.699865,-51.248016,0.175230,-0.567755,-0.330237,44.499683,41.287628,11.002717
1127,424128092,-1.695405,-16.944092,-50.989697,0.537728,-0.071672,-0.587461,40.251907,44.063473,16.563465
1128,424144759,-1.344371,-16.120535,-50.655830,0.371090,-0.227178,-0.499125,28.251524,48.142361,20.714703
1129,424161426,-1.080686,-15.231530,-50.230335,-0.093592,-0.345378,-0.338854,24.209738,52.063286,25.910048
1130,424178093,-0.684085,-14.346900,-49.697773,-0.722063,-0.499091,-0.273488,33.445675,51.850147,31.915005
1131,424194760,-0.101937,-13.493869,-49.036484,-0.805067,-0.243203,-0.298584,45.970943,50.170067,39.065147
1132,424211427,0.469886,-12.651782,-48.281998,-0.244189,0.133791,-0.604366,46.050022,49.917099,44.133507
1133,424228094,0.820222,-11.739870,-47.506531,0.140645,0.388263,-0.838608,32.354183,54.471020,45.059345
1134,424244761,0.935881,-10.795866,-46.677761,-0.223929,0.271686,-0.566354,18.162724,56.626591,48.092674
1135,424261428,1.084560,-9.846809,-45.789761,-0.892254,0.133793,-0.441192,19.976269,57.101982,51.604378
1136,424278095,1.417541,-8.965056,-44.859978,-1.030021,0.241332,-0.139059,30.609108,53.333820,54.067120
1137,424294762,1.675036,-8.120776,-43.935020,-1.107928,0.620016,0.155488,25.211748,51.354916,53.691933
