sep=,
DeviceTag:,DOT10
FirmwareVersion:,3.0.0
AppVersion:,2023.6.0
SyncStatus:,Synced
OutputRate:,60Hz
FilterProfile:,Dynamic
Measurement Mode:,Custom modes - custom mode1
StartTime: ,2026-06-02_17:34:38_322 GMT+2
© Movella Technologies B. V. 2005-2026

PacketCounter,SampleTimeFine,Euler_X,Euler_Y,Euler_Z,FreeAcc_X,FreeAcc_Y,FreeAcc_Z,Gyr_X,Gyr_Y,Gyr_Z
1,877035161,4.932375,-6.098007,85.430725,2.698100,-0.418611,0.771758,7.022573,44.792828,-1.760758
2,877051828,5.132885,-5.398168,85.501160,-1.005903,-1.446738,-0.973456,13.873587,41.283913,0.429291
3,877068495,4.902712,-4.741940,85.826385,-3.636456,-1.820269,0.942485,-10.668760,40.004688,15.842824
4,877085162,4.081572,-4.105298,86.217537,-1.497612,-0.077767,1.937443,-46.052254,38.989632,20.260927
5,877101829,3.405205,-3.540120,86.525627,1.830115,1.174244,0.816869,-37.949108,34.117958,16.113503
6,877118496,3.343297,-3.111678,86.719940,1.746633,1.229079,0.846128,-1.631418,25.426735,10.031387
7,877135163,3.282099,-2.803900,86.813240,0.467615,0.850590,2.017335,-1.969465,17.843105,4.441677
8,877151830,3.007513,-2.650472,86.862961,0.800439,0.583175,2.634088,-14.917671,8.442461,2.398382
9,877168497,2.685012,-2.716683,86.912598,1.638671,0.170294,2.958226,-17.791872,-4.730531,3.097597
10,877185164,2.586455,-3.020583,86.969711,1.951767,-0.187258,2.578789,-4.317501,-18.967344,4.184666
11,877201831,2.581636,-3.436100,87.019119,1.040246,0.604800,1.496449,1.309331,-25.682978,4.008711
12,877218498,2.144690,-3.901953,87.050423,0.324328,1.229417,2.590542,-24.660557,-28.759226,2.951898
13,877235165,1.460997,-4.477629,87.076859,-0.011867,1.301418,2.923731,-39.467445,-35.378342,2.597160
14,877251832,0.782230,-5.344420,87.150032,-0.108080,0.934315,4.211796,-38.910980,-52.811623,5.321664
15,877268499,0.653221,-6.693760,87.192612,3.084828,-0.105627,4.590785,-6.034276,-81.817673,3.486656
16,877285166,0.662554,-8.325663,87.134644,-0.484279,-0.578404,1.771916,1.554700,-98.843430,-2.393154
17,877301833,0.824672,-9.905702,87.283318,-0.154993,-0.494735,-0.641715,12.587465,-95.578239,9.967994
18,877318500,2.429431,-11.674848,87.702484,-0.997103,1.287953,0.778971,102.432831,-106.307732,27.640076
19,877335167,5.002690,-13.524084,88.265518,-0.728301,0.815236,-0.836248,163.192490,-109.488579,40.011963
20,877351834,7.735496,-15.382087,88.780045,0.686518,-0.028102,-0.055279,173.099869,-108.378548,41.993122
21,877368501,10.185010,-17.288254,89.056580,1.987962,-0.353831,2.070959,153.068954,-111.397438,33.448326
22,877385168,12.473885,-19.251701,89.106514,1.760088,-0.594756,1.516593,139.712524,-115.856949,25.831835
23,877401835,15.223745,-21.516567,89.071487,2.648991,-0.997803,1.231817,165.697876,-133.326828,30.506262
24,877418502,18.885729,-24.087160,89.090714,0.299573,0.274766,-0.997848,221.597427,-148.075409,46.137550
25,877435169,23.319494,-26.678305,89.146637,-0.335476,0.369415,-0.786547,268.885559,-144.900299,58.682781
26,877451836,28.851116,-29.340639,89.200172,0.131742,0.656667,-0.397114,334.811554,-143.196091,72.668495
27,877468503,35.283516,-32.008556,89.239883,-0.837348,0.108224,-0.003219,388.554718,-135.558746,86.607185
28,877485170,42.167332,-34.634987,89.312386,-0.860640,-0.699379,0.663380,416.809448,-121.674751,101.308876
29,877501837,48.940376,-37.210285,89.367302,-0.227739,-0.384076,0.786617,409.714844,-107.298332,112.070404
30,877518504,55.227421,-39.671406,89.413681,0.058909,-0.013309,-0.324854,380.346344,-90.036217,117.698875
31,877535171,60.848026,-42.010029,89.391312,0.137501,0.582464,-1.123270,337.771240,-76.145531,118.354568
32,877551838,65.917282,-44.246250,89.190628,0.951332,-0.275223,-0.784315,297.336731,-68.986252,115.843208
33,877568505,70.038857,-46.319809,88.793785,1.005882,-0.682428,-0.523874,231.811676,-63.193348,108.863533
34,877585172,73.398064,-48.197723,88.248322,0.661052,-0.231629,-1.170601,178.956787,-57.463371,99.818314
35,877601839,76.144943,-49.895344,87.576439,0.651572,-0.193282,-1.474642,135.817215,-53.280823,91.132523
36,877618506,78.373077,-51.426102,86.812881,0.901185,0.054357,-1.648745,99.707359,-49.620018,82.968643
37,877635173,80.379105,-52.798649,85.958466,1.119354,0.496510,-1.902398,81.359970,-47.169186,74.923027
38,877651840,82.508324,-53.979923,84.995590,1.073072,1.137064,-2.545672,82.837166,-45.666676,64.746063
39,877668507,84.804092,-54.981789,83.966118,1.013972,1.061334,-2.252789,88.928909,-43.366364,55.558956
40,877685174,87.040993,-55.783321,83.087730,-0.431506,0.734388,-1.607945,92.300789,-34.351154,45.617859
41,877701841,89.036156,-56.410416,82.415840,-0.827104,0.516721,-1.384992,87.711578,-24.830000,36.608292
42,877718508,90.603638,-56.883129,81.875450,0.261174,0.754362,-1.386792,68.425095,-18.983473,28.078968
43,877735175,91.841530,-57.153259,81.332268,1.424527,0.743008,-1.646074,48.393188,-18.464386,16.353552
44,877751842,92.832695,-57.199905,80.736038,1.393909,1.357545,-2.000238,30.871078,-20.338837,3.355056
45,877768509,93.738228,-57.063374,80.141769,0.892468,1.360443,-1.768867,25.851610,-20.870621,-7.307410
46,877785176,94.532143,-56.792889,79.647812,0.135104,0.695302,-1.240824,24.266676,-18.388302,-15.263309
47,877801843,95.321106,-56.454010,79.331963,-0.445294,0.429470,-0.573222,32.978874,-13.222197,-19.607439
48,877818510,96.029778,-56.136360,79.240074,-0.918739,0.211264,0.071528,39.398853,-6.019256,-18.910278
49,877835177,96.717461,-55.846352,79.360710,-0.883752,0.229667,0.258817,48.727119,1.006339,-17.988867
50,877851844,97.387939,-55.584763,79.639091,-0.083847,0.192290,0.355582,55.488701,6.321924,-16.977852
51,877868511,98.229828,-55.337929,79.967247,0.473448,0.556411,-0.374956,68.193840,7.956578,-16.436613
52,877885178,99.333023,-55.121876,80.201096,1.212743,0.343788,0.100417,79.184494,4.837421,-14.281289
53,877901845,100.500008,-54.872120,80.319252,1.060356,0.569157,-0.198107,77.290077,0.319634,-15.707946
54,877918512,101.729279,-54.617340,80.350098,0.629736,0.716356,0.121052,76.737221,-3.008712,-15.453858
55,877935179,103.049248,-54.395580,80.278961,0.385103,0.362349,0.460935,77.194450,-6.391223,-12.712972
56,877951846,104.391792,-54.219654,80.140320,0.031847,0.002427,0.986511,75.264755,-8.341742,-9.350646
57,877968513,105.635422,-54.098946,79.957275,-0.544774,-0.158062,1.194301,67.189598,-9.209453,-5.576334
58,877985180,106.812973,-54.072086,79.727570,-0.733752,-0.007877,1.325329,60.958054,-9.339052,0.467841
59,878001847,107.903275,-54.078270,79.474022,-0.478295,-0.529957,1.659808,54.566868,-9.534777,2.773738
60,878018514,109.119606,-54.136608,79.152191,-0.467208,0.054465,1.380714,58.803230,-10.749094,6.673570
61,878035181,110.677109,-54.283298,78.675514,-0.504414,0.155709,1.116090,71.716263,-13.858917,13.728592
62,878051848,112.592827,-54.429234,78.034203,-0.756281,0.128104,1.311882,85.132210,-18.745737,16.169687
63,878068515,114.909012,-54.617283,77.237907,-0.942596,0.045031,1.408994,101.522980,-21.966883,21.258221
64,878085182,117.520485,-54.836815,76.303558,-0.470582,-0.371029,1.601859,112.372238,-24.360929,25.881649
65,878101849,120.251694,-55.128922,75.233566,-0.098735,-0.670506,1.759242,112.741028,-24.924475,32.910889
66,878118516,123.099503,-55.506462,74.032547,-0.051449,-0.680091,1.578045,113.053154,-24.143972,40.586048
67,878135183,126.197838,-55.940414,72.609047,0.305094,-0.267625,1.046077,116.763451,-25.911818,48.549465
68,878151850,129.271881,-56.361481,71.055145,0.815627,-0.100226,0.281250,108.448143,-26.758154,51.548397
69,878168517,132.138962,-56.723011,69.449120,1.186796,0.181999,-0.212422,93.070267,-27.283504,50.880440
70,878185184,134.593292,-57.079811,67.858604,1.265114,-0.668773,0.486531,68.750183,-24.349957,51.142132
71,878201851,136.519653,-57.496391,66.356270,0.833435,-1.301136,0.676083,41.181343,-17.436197,52.077896
72,878218518,138.296890,-57.997925,64.819748,0.176775,-1.485558,0.305495,30.105442,-12.314347,56.393394
73,878235185,140.113785,-58.547092,63.213715,-0.424410,-0.773978,-0.387912,28.491137,-9.332185,59.706169
74,878251852,142.206055,-58.992966,61.505955,-0.110414,1.086922,-2.114781,39.353924,-13.648639,57.975624
75,878268519,144.567505,-59.279724,59.792240,-0.290894,1.699536,-2.501873,54.859570,-18.819237,52.416721
76,878285186,147.065018,-59.438122,58.130486,-0.716559,1.128854,-1.443158,65.494453,-21.862206,47.187790
77,878301853,149.261032,-59.595745,56.676167,-0.246991,-0.628388,0.381426,57.986355,-16.493958,42.403694
78,878318520,150.928696,-59.735332,55.452435,0.751954,-0.737770,-0.077936,38.114941,-12.404320,36.132660
79,878335187,152.151703,-59.818005,54.459694,0.699197,0.914995,-1.085649,23.339598,-11.102740,28.541616
80,878351854,153.212448,-59.803402,53.637054,0.227491,1.831864,-1.489708,22.408405,-13.351801,21.467569
81,878368521,154.226761,-59.733891,52.951546,0.297742,1.635669,-1.091186,26.743525,-14.096455,16.536041
82,878385188,155.066742,-59.649551,52.425549,0.409158,1.064749,-0.446209,24.574944,-12.588233,12.034452
83,878401855,155.698425,-59.575657,52.005997,0.409700,0.635651,0.099401,17.607271,-10.534894,9.534953
84,878418522,155.979080,-59.516048,51.712765,0.552792,0.562566,0.386071,3.092702,-8.115194,6.478101
85,878435189,155.825790,-59.487221,51.567657,0.340229,0.905165,0.474317,-15.279575,-4.590632,3.131520
86,878451856,155.345337,-59.468681,51.513260,0.042631,1.251379,0.476515,-30.217028,-2.908101,0.850056
87,878468523,154.737442,-59.429749,51.489826,-0.185589,1.469836,0.434734,-36.263824,-3.630297,-0.543581
88,878485190,154.263718,-59.360172,51.465199,-0.645925,2.087436,0.278995,-28.279715,-5.304290,-1.330814
89,878501857,154.069000,-59.250362,51.443928,-1.084164,2.848598,0.071891,-11.368024,-7.427815,-2.507677
90,878518524,154.141815,-59.104065,51.431473,-1.245619,2.620499,0.551802,5.135752,-9.282801,-3.727827
91,878535191,154.325119,-58.925243,51.486710,-1.382260,2.461729,0.661653,15.240186,-10.141644,-6.450337
92,878551858,154.557709,-58.689842,51.577335,-1.321903,2.540642,0.391147,20.002468,-12.749199,-8.893863
93,878568525,154.807388,-58.379116,51.685905,-1.501269,2.477687,0.422133,21.923845,-16.621058,-11.317444
94,878585192,155.085724,-57.992493,51.815395,-1.375945,2.322791,0.531443,24.687155,-20.506998,-13.817546
95,878601859,155.324768,-57.516834,52.049812,-1.487885,2.506040,0.140214,27.614273,-23.991188,-19.073521
96,878618526,155.546127,-56.909107,52.384350,-1.454813,2.375451,-0.301276,31.525793,-29.876928,-25.347298
97,878635193,155.796005,-56.146717,52.797520,-2.009812,2.256551,-0.259055,37.036163,-37.284275,-31.618055
98,878651860,156.306564,-55.291939,53.139294,-2.619887,1.407305,0.903874,48.926105,-43.419212,-31.692696
99,878668527,157.069138,-54.419308,53.449409,-2.232988,0.444127,1.358801,62.313839,-45.082470,-30.886465
100,878685194,157.870804,-53.529728,53.815315,-1.648701,0.484879,0.911991,67.189705,-45.588215,-32.707996
101,878701861,158.495972,-52.594376,54.329720,-1.845769,0.651022,0.475159,63.509197,-46.443356,-38.405983
102,878718528,158.935150,-51.553146,54.951324,-2.277051,1.194768,0.412292,57.091011,-51.127209,-44.369812
103,878735195,159.133072,-50.349102,55.714558,-2.532728,1.576946,0.198437,48.749664,-58.373611,-53.122349
104,878751862,159.091354,-49.015141,56.640163,-2.162112,1.320686,0.264395,41.143791,-63.203205,-62.448631
105,878768529,158.903595,-47.592297,57.752605,-1.768426,0.990599,0.084077,39.867161,-65.023354,-72.389320
106,878785196,158.818619,-46.104710,58.998505,-1.660454,0.975188,-0.240519,50.721687,-66.051575,-80.216805
107,878801863,158.925995,-44.551514,60.340359,-1.389475,0.946853,-0.751218,64.977814,-67.772064,-86.734978
108,878818530,159.263779,-42.902714,61.754486,-1.120205,0.917381,-1.131052,80.192131,-71.790825,-92.926414
109,878835197,159.685638,-41.209400,63.247322,-0.434173,0.509911,-1.009492,86.576157,-73.095375,-98.244667
110,878851864,160.266968,-39.585484,64.811050,0.282604,-0.409863,-0.474071,96.955017,-68.353439,-100.835342
111,878868531,161.073486,-38.091942,66.391640,0.629841,-0.656939,-0.105696,109.133362,-61.395969,-99.690880
112,878885198,162.092056,-36.684990,67.959969,0.007742,0.077713,-0.608447,119.528534,-57.769024,-97.918716
113,878901865,163.095520,-35.337986,69.521591,-0.071796,0.188995,-1.391489,116.575104,-55.756992,-96.796051
114,878918532,163.830719,-34.020714,71.105354,0.456450,-0.062989,-1.368771,99.466019,-54.842934,-97.694717
115,878935199,164.286469,-32.782497,72.678658,1.533038,-1.039163,0.011158,80.606949,-51.118744,-96.456848
116,878951866,164.666794,-31.673073,74.159637,1.945919,-0.983141,1.042465,71.517365,-45.351734,-90.505104
117,878968533,165.150650,-30.654804,75.527893,1.077132,-0.185921,1.136781,72.837845,-42.036655,-83.976540
118,878985200,165.713638,-29.642004,76.770500,0.956454,0.443385,0.391090,72.558342,-43.942265,-77.916733
119,879001867,166.169220,-28.536303,77.954216,0.128478,1.085177,0.261735,63.208721,-50.629375,-76.550522
120,879018534,166.406189,-27.323395,79.063156,0.428574,1.012189,0.683731,46.733898,-58.124985,-74.584892
121,879035201,166.552673,-26.044025,80.136078,1.124118,0.528483,1.008217,39.055614,-62.554043,-74.089912
122,879051868,166.706635,-24.718906,81.185852,0.300210,0.603845,1.082672,37.602917,-65.566475,-73.959717
123,879068535,166.976883,-23.369072,82.149681,0.392041,0.577610,1.117621,41.154987,-68.218414,-70.075531
124,879085202,167.331711,-21.992338,83.095596,0.330397,0.721484,1.004253,44.550457,-70.278885,-69.616966
125,879101869,167.494080,-20.602556,84.096855,1.031303,0.580528,0.924594,32.948006,-70.574150,-72.995575
126,879118536,167.273529,-19.295353,85.193512,1.083104,0.436175,0.978264,10.616229,-64.420883,-77.682091
127,879135203,166.834045,-18.070858,86.361877,0.410903,0.121313,1.316240,-2.499081,-58.118130,-81.373100
128,879151870,166.336105,-16.904774,87.531357,0.449634,-0.036704,1.733209,-7.371341,-53.925240,-81.513840
129,879168537,165.929825,-15.842829,88.673767,0.499715,-0.034172,1.642509,-3.622168,-47.492058,-79.307785
130,879185204,165.667587,-14.890364,89.816147,0.374875,-0.111643,1.180758,3.869692,-40.578533,-78.285583
131,879201871,165.590042,-14.001013,91.007385,-0.144488,-0.105424,0.157663,14.622668,-35.904701,-80.474266
132,879218538,165.658096,-13.161112,92.240341,-0.135488,-0.197184,-0.081166,22.909281,-32.351761,-82.357155
133,879235205,165.785095,-12.367980,93.520142,-0.073490,0.068573,0.255100,26.047037,-29.034752,-84.495430
134,879251872,165.913788,-11.632605,94.852852,0.155853,0.333788,0.812566,25.813787,-25.050463,-86.805466
135,879268539,166.004395,-10.954030,96.279358,0.073122,0.399125,0.595994,23.675989,-20.521214,-91.485832
136,879285206,165.979095,-10.316285,97.842903,-0.140418,0.201102,0.017331,17.284140,-16.195566,-98.899734
137,879301873,165.819000,-9.685756,99.559410,-0.240699,-0.033224,-0.296553,9.778050,-13.368236,-107.758064
138,879318540,165.437775,-9.043861,101.474861,-0.378091,0.178124,-0.658540,-2.663100,-10.543695,-119.583786
139,879335207,164.827591,-8.272629,103.537628,-0.586692,0.382275,-0.364084,-16.455776,-14.707233,-130.312042
140,879351874,164.313202,-7.244892,105.742447,-0.518386,-0.331739,0.316268,-11.469355,-25.938515,-142.943344
141,879368541,163.680389,-6.054799,108.174622,0.945618,-0.797433,-0.176215,-19.523680,-30.038115,-159.201248
142,879385208,162.866119,-4.889480,110.906204,1.508678,-1.791857,0.436136,-31.657696,-21.350933,-176.550125
143,879401875,161.945251,-3.884209,113.968193,1.305560,-2.327359,-0.538167,-39.608280,-3.446315,-193.022263
144,879418542,160.829285,-3.019575,117.313866,1.648299,-2.943151,-1.116515,-53.256607,13.496307,-206.640930
145,879435209,159.763733,-2.174370,120.790916,2.392845,-3.092804,-1.492607,-52.852962,21.256031,-213.473206
146,879451876,158.857376,-1.292410,124.201584,3.107817,-2.621843,-2.019489,-46.551609,21.531675,-210.215485
147,879468543,158.283478,-0.427773,127.238731,2.173989,-1.384047,-0.157836,-30.051901,17.084255,-188.732101
148,879485210,158.256256,0.250518,129.475250,0.552117,0.918088,1.492950,0.221290,10.695471,-139.873184
149,879501877,159.098877,0.572275,130.635666,-1.638604,1.406981,1.614804,51.713364,6.155165,-72.038345
150,879518544,160.640335,0.690930,130.918060,-3.637954,-2.178255,-0.802293,93.956238,-2.041692,-18.515572
151,879535211,162.496887,0.786075,130.709137,-1.485084,-2.481016,-2.442801,113.186584,-10.575930,9.932760
152,879551878,163.681900,0.883742,130.469711,2.070127,0.285223,-3.991688,72.925400,-10.981276,11.891818
153,879568545,163.630692,0.969905,130.355896,2.115603,0.938170,-2.829330,-1.337585,-8.071908,4.952710
154,879585212,162.990540,0.974009,130.286331,1.510994,1.468975,-0.168577,-36.700638,-2.616529,3.776284
155,879601879,162.334015,0.873151,130.255005,0.183610,0.315521,1.754345,-37.711948,4.034540,3.447161
156,879618546,161.988708,0.733453,130.226257,-0.800827,-0.724634,1.621435,-19.043453,6.269479,4.058588
157,879635213,161.920944,0.627616,130.170776,-0.647627,-0.597922,0.576981,-2.383352,3.824162,4.985647
158,879651880,162.033829,0.591096,130.095444,-0.442281,-0.559484,0.182274,8.457886,-0.497424,4.827132
159,879668547,162.140121,0.618589,130.017075,0.054189,0.053178,0.218438,8.057674,-4.198153,3.819834
160,879685214,162.126419,0.582937,129.934036,0.193949,0.424252,0.351963,0.862962,-0.674152,5.249765
161,879701881,162.012863,0.446552,129.776871,-0.277535,0.224411,0.333867,-5.096264,3.699622,11.343737
162,879718548,161.826141,0.207377,129.480453,-0.505558,-0.026317,0.105597,-9.469163,6.936926,21.210632
163,879735215,161.596390,-0.138445,129.046234,-0.701080,-0.448742,-0.387431,-12.141854,10.336222,31.102663
164,879751882,161.338120,-0.581277,128.436066,-0.582919,-0.578353,-0.106444,-14.105395,12.364454,43.006828
165,879768549,161.029648,-1.116130,127.628685,0.026217,-0.234971,0.448549,-17.610828,13.559968,56.051937
166,879785216,160.888336,-1.758083,126.656410,-0.124201,-0.499006,1.119521,-8.331852,16.188623,67.541489
167,879801883,160.823944,-2.570405,125.458107,0.565480,-0.292656,1.330076,-4.974937,21.283133,83.714661
168,879818550,159.978485,-3.600480,124.174286,1.701109,-0.616125,0.408732,-53.269310,31.224768,93.045334
169,879835217,158.357346,-4.760399,123.022377,-0.383384,-2.793306,-0.916673,-100.695892,39.338181,89.037880
170,879851884,156.722321,-6.018486,121.712250,1.016866,-1.864905,-0.250016,-103.889671,38.675419,101.026093
171,879868551,154.962997,-7.400999,120.201401,2.177628,-1.010147,0.475200,-114.560196,37.664730,115.960152
172,879885218,153.133987,-8.992869,118.565872,2.434637,-1.145689,2.125803,-122.133224,42.205406,129.003754
173,879901885,151.467636,-10.808515,116.878578,2.161743,-2.038170,2.902694,-115.785324,48.936813,138.809860
174,879918552,150.126999,-12.728621,115.205482,0.974257,-2.430762,1.505392,-99.312927,51.462006,141.873352
175,879935219,149.287811,-14.630148,113.537766,1.237728,-1.909379,0.807693,-72.428909,48.323429,141.390060
176,879951886,148.852188,-16.482655,111.847725,1.181431,-1.517957,0.190624,-51.754604,43.993633,140.820526
177,879968553,148.762314,-18.285652,110.116409,1.042180,-1.456330,-0.018865,-34.856953,40.058823,140.731384
178,879985220,148.935165,-20.059046,108.324577,1.427099,-1.419138,-0.015592,-23.368807,37.397434,141.853302
179,880001887,149.165268,-21.814873,106.457458,2.049262,-1.537197,-0.249519,-24.658499,35.408710,143.828873
180,880018554,149.463867,-23.528637,104.552917,1.339174,-1.603300,-0.444505,-24.562542,33.489285,143.084381
181,880035221,149.776367,-25.185528,102.608902,1.706946,-1.343358,-0.902650,-27.784412,30.901968,141.880020
182,880051888,150.097000,-26.798553,100.653587,1.183614,-1.469108,-0.995420,-30.604227,29.812368,139.697342
183,880068555,150.290741,-28.357954,98.676071,1.859266,-1.257536,-1.437380,-41.736671,27.789133,137.722504
184,880085222,150.259048,-29.919531,96.739120,1.872414,-1.298677,-1.723561,-56.912731,29.913565,134.576797
185,880101889,150.059357,-31.502848,94.860786,1.915003,-1.239692,-2.197063,-67.952522,33.070854,131.293533
186,880118556,149.453201,-33.091419,92.994499,3.237081,-1.229856,-1.435503,-94.608292,33.545261,129.766327
187,880135223,148.514404,-34.621769,91.023018,3.496289,-1.629092,-2.161723,-120.617661,26.953970,131.498322
188,880151890,147.656937,-36.208073,88.945030,3.224670,-1.636721,-1.992351,-122.080574,25.942694,136.586044
189,880168557,146.892899,-37.829647,86.626900,3.772339,-2.504511,-1.067116,-127.953156,20.673550,146.054810
190,880185224,146.688660,-39.780594,84.156372,3.865876,-2.593572,0.310257,-103.511124,33.518330,160.805023
191,880201891,146.856476,-42.191055,81.871567,2.572551,-0.905768,-0.655966,-78.200798,63.111565,165.877213
192,880218558,147.133499,-44.906548,79.563354,1.902103,-0.220303,-2.022223,-77.154366,80.773529,173.005173
193,880235225,147.427826,-47.765125,77.433304,-0.338616,0.768295,-3.435678,-73.167183,95.397903,167.042831
194,880251892,147.602539,-50.651749,75.503235,-0.459473,1.545486,-2.935436,-75.571243,104.247406,156.928177
195,880268559,147.465591,-53.540142,73.802574,-1.446949,2.624985,-1.562923,-87.115181,111.340218,146.001312
196,880285226,147.062698,-56.388718,72.293365,-1.332679,2.499792,-0.463066,-96.718826,114.412102,136.221924
197,880301893,146.569717,-59.200172,70.979294,-2.346461,2.446240,0.581044,-94.720863,116.921310,127.553032
198,880318560,146.052170,-62.018364,69.985382,-3.069666,2.797729,0.576969,-81.448410,123.200043,118.173668
199,880335227,145.629044,-64.756226,69.212746,-3.336033,3.047219,0.541509,-65.302681,123.002312,109.428154
200,880351894,145.444946,-67.290443,68.534470,-4.181951,4.048096,0.336903,-46.715576,114.744789,99.655518
201,880368561,145.446945,-69.623726,67.863556,-3.986075,4.073095,0.725541,-35.830658,105.650276,91.517593
202,880385228,145.235992,-71.744453,67.360176,-4.364842,4.068515,1.331364,-39.686455,97.720230,80.483948
203,880401895,144.450378,-73.699669,67.317924,-4.683385,4.184115,1.613251,-48.092136,94.223305,68.032974
204,880418562,142.854309,-75.484413,67.977829,-4.835061,4.205658,1.520789,-56.131187,91.234268,54.815022
205,880435229,140.022293,-77.055122,69.706909,-4.721512,4.423516,1.537448,-67.668770,87.797653,39.262035
206,880451896,135.941910,-78.386208,72.477547,-3.395211,3.729390,1.598145,-80.938477,81.759148,26.914850
207,880468563,130.697403,-79.396019,76.115005,-1.745688,3.472496,1.381809,-99.047462,70.924850,14.907298
208,880485230,124.875206,-80.086304,80.195892,-1.553048,3.561615,1.405501,-106.948196,58.615898,5.669727
209,880501897,119.146751,-80.509995,84.355118,-1.375449,2.522323,1.605857,-96.274200,47.918499,-1.108678
210,880518564,113.872620,-80.778641,88.417358,-1.288191,1.787948,1.708642,-74.501938,41.448524,-3.648238
211,880535231,109.491814,-80.950500,91.906898,-1.209964,0.613293,2.071566,-54.685802,33.509663,-3.099169
212,880551898,106.858490,-81.316719,94.070503,-1.595163,0.501996,1.147419,-28.296839,24.688341,14.231001
213,880568565,104.288506,-81.631584,96.472916,-0.413426,0.276159,1.439720,-10.198609,24.491838,12.045772
214,880585232,101.645859,-81.782364,98.943649,-0.406778,0.315575,1.146888,-10.413018,21.703894,3.601326
215,880601899,99.482658,-81.826775,100.989723,-0.516462,1.142236,0.587183,-6.832912,16.533522,-1.003584
216,880618566,98.336113,-81.861488,102.232063,-0.250116,0.765202,0.061805,6.430578,9.613123,0.006025
217,880635233,97.659012,-81.841667,103.014008,-0.297617,0.502439,0.043669,7.276026,5.260972,-2.531317
218,880651900,97.359772,-81.775551,103.396126,-0.116658,-0.013237,0.302351,6.185436,1.561805,-4.783262
219,880668567,97.244324,-81.696526,103.535423,-0.123437,-0.318028,0.337433,2.791087,-0.567770,-5.278074
220,880685234,97.443871,-81.622200,103.338226,0.099837,-0.230672,0.177711,1.710961,-3.428222,-4.621787
221,880701901,97.841515,-81.529167,102.919922,0.110285,0.365702,0.027254,0.489440,-5.540885,-5.462703
222,880718568,98.661568,-81.387306,102.119766,-0.043265,1.210424,-0.245554,3.153802,-9.434968,-7.807370
223,880735235,99.728714,-81.226387,101.067352,0.181484,0.786349,-0.220574,3.067642,-12.123321,-8.432194
224,880751902,100.722755,-81.015289,99.916290,0.224154,0.645660,0.000548,-7.143672,-13.900784,-10.997555
225,880768569,101.468224,-80.752396,98.761978,0.115773,0.660204,0.253759,-22.206614,-14.964996,-13.790677
226,880785236,101.721016,-80.452438,97.869698,-0.207741,1.054048,0.509622,-36.223457,-13.341328,-16.295067
227,880801903,101.801346,-80.088448,97.172020,-0.636980,1.953143,0.273017,-34.983868,-12.534820,-20.379183
228,880818570,102.113670,-79.655792,96.338005,-0.394761,2.299712,0.120396,-29.077854,-15.142738,-24.022646
229,880835237,102.810181,-79.133606,95.105209,-0.126490,1.770739,0.119903,-29.472895,-21.206963,-28.115208
230,880851904,103.758621,-78.427948,93.317047,-0.031712,2.126040,-0.075464,-46.889584,-31.196070,-36.879101
231,880868571,105.146652,-77.503983,91.025925,-0.653095,3.202754,-0.255124,-49.729424,-42.738049,-47.007118
232,880885238,106.938416,-76.394272,88.476379,-0.882567,2.948945,0.018829,-40.091644,-52.742996,-54.936115
233,880901905,108.842033,-75.169289,85.975006,-0.932688,1.489613,0.707860,-29.848200,-58.796040,-59.132267
234,880918572,110.605499,-73.886337,83.706886,-1.162664,0.659003,1.004292,-23.931671,-61.284153,-60.733898
235,880935239,112.371437,-72.582619,81.663727,-1.246690,0.814803,1.243214,-10.017539,-62.682388,-60.364830
236,880951906,114.090317,-71.312004,79.822655,-1.097300,0.521091,1.082969,-0.500382,-62.643990,-57.091499
237,880968573,115.718552,-70.021744,78.229836,-0.790367,0.926672,0.747994,8.906026,-62.411175,-57.440739
238,880985240,117.180000,-68.705765,76.836914,-0.485932,0.784894,0.530984,10.858589,-62.653194,-58.128197
239,881001907,118.537399,-67.342033,75.588379,-0.456891,0.981478,0.387840,13.348448,-64.133835,-59.797058
240,881018574,119.804482,-65.956795,74.467453,-0.410115,0.777246,0.592555,15.636953,-64.903618,-60.135998
241,881035241,120.982254,-64.563919,73.508064,-0.677239,0.532294,0.766370,19.743803,-64.179939,-60.462589
242,881051908,122.097076,-63.127247,72.675087,-0.927819,0.493367,0.856051,23.379211,-64.987122,-62.509708
243,881068575,123.172478,-61.625088,71.991165,-1.033868,0.694301,0.454285,29.507050,-65.747971,-66.205338
244,881085242,124.198685,-60.033081,71.440834,-0.844459,0.832937,0.114383,34.060493,-67.494560,-71.119026
245,881101909,125.244537,-58.362225,70.989334,-0.945540,0.875657,-0.015178,40.795788,-69.632622,-75.066994
246,881118576,126.357697,-56.643890,70.574600,-0.692972,0.244642,0.371886,47.103210,-72.284172,-76.368301
247,881135243,127.526543,-54.938881,70.245262,-0.840936,0.193716,0.514529,55.089706,-71.497017,-75.657112
248,881151910,128.922409,-53.253563,69.996162,-1.068404,0.204880,0.489105,72.930000,-70.597054,-74.579666
249,881168577,130.701889,-51.581577,69.778809,-1.199052,-0.083347,0.305129,97.696991,-71.500801,-72.524918
250,881185244,132.790833,-49.926521,69.602089,-0.912991,-0.435252,0.683379,118.378174,-72.292038,-70.175705
251,881201911,134.901627,-48.344810,69.544876,-0.538773,-0.542561,0.673440,125.304276,-68.538887,-67.432358
252,881218578,136.617798,-46.800953,69.646149,0.150047,-0.347182,0.259712,108.695648,-64.697960,-68.090668
253,881235245,137.828354,-45.271538,69.924011,0.051425,0.109943,0.006276,85.879021,-60.700382,-71.334366
254,881251912,138.598282,-43.786640,70.327461,0.160345,0.172152,0.393937,64.415894,-56.146381,-72.743423
255,881268579,139.150620,-42.370209,70.832062,-0.101834,0.334247,0.552142,55.061893,-50.699802,-73.052567
256,881285246,139.727066,-40.996174,71.431366,0.000254,0.492782,0.277242,59.741707,-46.409386,-74.501793
257,881301913,140.416397,-39.622108,72.111626,0.123912,0.726156,-0.266948,69.006096,-44.496845,-77.269211
258,881318580,141.235138,-38.251968,72.852081,0.634267,0.385745,-0.245359,78.285606,-43.168266,-79.197166
259,881335247,141.953461,-36.933464,73.636528,1.197989,-0.137165,0.234093,73.060364,-40.105030,-78.842514
260,881351914,142.546844,-35.722466,74.468796,0.924844,-0.242119,0.863222,66.439453,-34.117058,-76.750237
261,881368581,142.999817,-34.586025,75.319504,0.741606,-0.055602,1.090078,57.834858,-30.350410,-74.924522
262,881385248,143.471115,-33.445435,76.204346,-0.095209,0.642137,-0.111395,59.252644,-29.798624,-76.650597
263,881401915,144.062912,-32.283470,77.095512,0.231928,0.421245,-1.034966,65.801598,-31.014465,-77.867508
264,881418582,144.604416,-31.131565,78.035446,0.901371,-0.093866,-0.904799,63.413383,-29.509378,-79.701584
265,881435249,144.897659,-29.997375,78.982605,1.529308,-0.622533,-0.074312,47.784882,-28.676832,-79.646347
266,881451916,144.967850,-28.868713,79.900032,0.947498,-0.394128,0.718162,32.572628,-29.230659,-78.547668
267,881468583,144.978714,-27.726995,80.786697,-0.058725,-0.085646,0.471458,27.195211,-30.559793,-78.067909
268,881485250,145.120926,-26.614704,81.660385,-0.245900,-0.036469,-0.005454,33.793591,-29.340498,-76.837540
269,881501917,145.376999,-25.532755,82.543297,0.421889,-0.227984,-0.473047,39.975777,-27.572115,-76.476646
270,881518584,145.708878,-24.459293,83.451134,0.554619,0.043298,-0.148045,44.268044,-26.531881,-77.522263
271,881535251,146.122330,-23.396143,84.394341,0.380281,0.163490,0.314596,49.106827,-25.205538,-78.954163
272,881551918,146.569763,-22.391884,85.436798,-0.072309,0.308176,0.536210,52.533005,-19.593239,-81.709709
273,881568585,147.101852,-21.438871,86.593697,-0.088297,0.218385,-0.019166,59.194901,-14.012240,-85.538490
274,881585252,147.577972,-20.497292,87.882271,0.050434,0.244903,-0.601264,57.603420,-9.981504,-91.609627
275,881601919,147.822617,-19.551435,89.400078,-0.756178,0.776385,-0.826025,47.243782,-3.629061,-102.988274
276,881618586,148.024094,-18.574501,91.170952,-1.605060,0.473048,-1.008465,48.177135,2.276322,-116.554993
277,881635253,148.182739,-17.527020,93.206665,-1.799458,0.422744,-1.220854,48.757858,6.614463,-132.134827
278,881651920,148.103180,-16.278585,95.642242,-1.859850,0.081220,-1.767962,39.113396,8.786005,-158.623001
279,881668587,148.037033,-14.829075,98.500931,-0.725738,-1.300243,-2.215303,43.430580,12.195875,-186.561127
280,881685254,147.885086,-13.158677,101.806664,-0.240924,-2.693784,-2.652859,40.273083,15.774712,-216.632950
281,881701921,147.980087,-11.256276,105.514359,0.095636,-4.842151,-2.530353,54.176922,17.366364,-245.152328
282,881718588,148.612030,-9.291824,109.464912,1.771150,-6.633462,-2.045495,81.629471,20.984522,-260.646393
283,881735255,149.714081,-7.477541,113.404823,2.098040,-6.614302,-2.314966,102.028839,25.139280,-256.849792
284,881751922,150.985687,-5.809093,117.013298,2.346162,-5.050929,-2.148176,102.789154,18.147951,-236.634888
285,881768589,151.910507,-4.254510,119.905434,2.024190,-2.084457,0.409693,72.180008,-0.525206,-196.620544
286,881785256,152.295380,-3.100825,121.757332,1.854355,2.395579,3.076380,31.712559,-10.510204,-130.562729
287,881801923,151.957901,-2.447527,122.429192,-1.301421,2.043518,2.831577,-16.775000,-17.048548,-54.096466
288,881818590,151.630157,-2.129889,122.272385,-2.454486,-0.675317,1.117786,-18.516781,-22.470562,-0.916002
289,881835257,151.676239,-1.959885,121.786606,0.138548,-0.446345,-0.055410,3.229485,-24.043394,20.594229
290,881851924,151.917725,-1.917012,121.321892,3.011342,0.368494,-0.760805,15.047711,-16.670082,23.145912
291,881868591,152.163345,-1.995351,121.062157,2.740229,0.346599,-0.339177,15.723453,-4.375361,15.774794
292,881885258,152.308456,-2.077276,121.042130,0.785378,-0.061895,1.016950,10.195375,2.574084,3.171961
293,881901925,152.247223,-2.071749,121.212975,-0.506724,-0.349606,1.774924,-1.765971,3.260261,-9.405038
294,881918592,152.006454,-1.992925,121.447937,-0.693444,-0.188559,1.659376,-12.414209,1.195135,-14.841745
295,881935259,151.680054,-1.897369,121.614403,-0.886111,-0.220416,1.208702,-17.717112,-1.554860,-11.684313
296,881951926,151.422043,-1.829798,121.692375,-0.695636,-0.078799,0.891973,-13.806820,-2.548363,-6.220625
297,881968593,151.186432,-1.812312,121.754410,-0.297937,-0.072235,0.082950,-12.501054,-0.344248,-3.949621
298,881985260,151.021500,-1.831298,121.812706,-0.073381,0.045781,-0.160170,-8.269918,1.477373,-2.693316
299,882001927,150.913254,-1.903965,121.858673,-0.117541,0.157248,0.037589,-4.890412,3.940765,-0.476665
300,882018594,150.847137,-2.015348,121.881927,-0.460810,-0.052152,0.411000,-2.405801,5.307611,1.851305
301,882035261,150.886047,-2.175648,121.867393,-0.477590,-0.147511,0.852316,3.813738,6.767511,5.262637
302,882051928,150.916763,-2.404171,121.822189,-0.260548,-0.128999,0.850887,3.240616,9.452915,8.855127
303,882068595,150.905350,-2.666493,121.739433,-0.357191,-0.356540,0.115611,0.599933,10.133656,11.805039
304,882085262,150.786377,-2.939453,121.620560,-0.231959,-0.413332,-0.339241,-5.988537,9.623553,14.018979
305,882101929,150.625458,-3.220012,121.476585,-0.226746,-0.293285,-0.574575,-8.624410,9.252056,15.584485
306,882118596,150.383636,-3.480516,121.318985,-0.136975,-0.214436,-0.801079,-13.568468,7.753023,15.732944
307,882135263,150.108810,-3.722732,121.188622,-0.151044,-0.234721,-0.438841,-15.491060,7.541306,13.811358
308,882151930,149.792099,-3.957499,121.113342,-0.071521,-0.210134,-0.104401,-17.817366,8.736450,10.776927
309,882168597,149.465820,-4.166256,121.069855,-0.175315,-0.294000,-0.170423,-18.275217,8.294244,8.397552
310,882185264,149.127914,-4.340953,121.040039,-0.250264,-0.359153,-0.138984,-18.923767,6.905482,6.708072
311,882201931,148.716919,-4.504887,121.029861,-0.157668,-0.283273,-0.389096,-23.227335,6.916500,5.421996
312,882218598,148.192398,-4.697884,121.029366,-0.124180,-0.465969,-0.888684,-29.996675,8.662124,5.906713
313,882235265,147.500320,-4.887125,120.997154,-0.221570,-0.458605,-1.332178,-40.212040,7.401237,7.495301
314,882251932,146.795990,-5.023249,120.884132,-0.782812,-0.593625,-0.668130,-41.375263,2.013895,9.927820
315,882268599,146.294373,-5.152531,120.723236,-0.779266,-0.549070,0.193308,-29.488771,-0.008875,12.117583
316,882285266,145.958725,-5.358559,120.576401,0.114694,-0.341394,0.154521,-19.489666,4.195504,13.992356
317,882301933,145.549805,-5.652630,120.413574,0.491404,-0.296055,-0.481876,-24.018505,7.935770,17.788828
318,882318600,144.972321,-6.020336,120.173126,0.285963,-0.518889,-0.910881,-34.659756,8.780878,24.188898
319,882335267,144.290802,-6.446972,119.804771,-0.207380,-0.840887,-0.752276,-41.837639,6.987874,32.561108
320,882351934,143.508575,-6.942507,119.276588,0.351200,-0.726288,0.126526,-49.179256,4.319935,42.768978
321,882368601,142.566940,-7.587492,118.618217,0.992648,-0.752686,0.408482,-60.047241,6.201472,54.407730
322,882385268,141.437790,-8.357395,117.844398,1.107297,-1.033533,-0.125077,-72.739960,6.949017,64.503349
323,882401935,140.387833,-9.181718,116.958862,0.549123,-1.362484,-0.693429,-69.648438,4.143634,71.777237
324,882418602,139.613647,-10.038692,115.962723,1.019673,-1.295016,-0.630119,-54.983982,0.383364,78.031784
325,882435269,138.801910,-10.957302,114.847160,2.045052,-1.085405,0.493147,-59.457291,-2.389296,85.682762
326,882451936,137.673996,-12.016029,113.626259,2.899723,-1.199378,1.492423,-80.810760,-1.542418,95.713676
327,882468603,136.122620,-13.235668,112.325943,1.989487,-2.059829,1.098386,-108.670273,0.309356,105.459702
328,882485270,134.426926,-14.597775,110.926582,1.457824,-2.728237,0.265461,-120.464783,-0.373047,115.294907
329,882501937,132.782913,-16.090191,109.399910,2.103123,-3.201457,-0.174146,-121.408173,-3.280303,125.659950
330,882518604,131.216751,-17.688038,107.766106,2.766133,-2.905257,-0.982322,-120.974617,-6.615778,133.922623
331,882535271,129.565323,-19.310905,106.091583,2.451387,-2.214273,-1.238338,-129.481216,-10.517744,135.837891
332,882551938,127.828819,-20.934189,104.391685,1.239880,-2.048491,0.033430,-137.787415,-14.892459,135.843613
333,882568605,126.359047,-22.547615,102.767410,-0.180309,-1.938100,0.006140,-122.791847,-14.853848,131.778290
334,882585272,125.099983,-24.150675,101.254745,-0.456941,-1.337652,0.071120,-110.031769,-12.507417,126.713928
335,882601939,123.921188,-25.721394,99.903404,-0.768374,-0.899698,-0.538180,-103.429504,-8.208223,119.283791
336,882618606,122.671753,-27.284718,98.709274,0.097396,-1.123065,-0.781158,-105.469475,-3.129164,113.584747
337,882635273,121.306358,-28.857836,97.705078,0.462263,-0.913376,-0.900550,-108.804161,3.890950,108.205711
338,882651940,119.874435,-30.408655,96.876999,-0.545735,-0.338191,-0.492527,-109.013466,9.152800,102.072609
339,882668607,118.680756,-31.891233,96.130569,-1.003179,-0.061172,0.060775,-93.320801,9.044925,96.328560
340,882685274,117.691071,-33.312790,95.458992,-0.474151,0.114893,0.018450,-79.632347,9.344914,91.202095
341,882701941,116.931900,-34.679298,94.917160,-0.808626,0.324362,-0.497481,-62.271526,12.647202,85.203911
342,882718608,116.324287,-36.052254,94.494537,0.363885,-0.109658,-0.235174,-49.682556,17.409101,82.890152
343,882735275,115.704651,-37.441952,94.177528,1.179361,-0.533894,-0.223700,-47.106953,21.845846,81.603127
344,882751942,115.254974,-38.821838,93.975594,0.749920,0.014714,-0.989370,-33.007347,25.981913,78.830414
345,882768609,114.921387,-40.276062,93.805885,1.600783,-0.591639,0.001582,-25.041199,28.849808,82.342087
346,882785276,114.469788,-41.801857,93.786079,0.875848,-0.291472,0.210186,-26.408861,36.396114,83.547539
347,882801943,114.120758,-43.394356,93.785736,1.368349,0.225809,0.109329,-19.489876,38.251911,87.097313
348,882818610,113.766235,-45.058731,93.901909,0.733104,0.724600,-0.254899,-14.940037,44.040318,89.249390
349,882835277,113.648956,-46.798126,94.060982,0.580490,1.474252,-0.371874,1.297505,46.982098,92.888931
350,882851944,113.623314,-48.581684,94.348412,1.046754,2.335519,-0.824544,12.689428,52.473793,93.379082
351,882868611,113.463043,-50.405445,94.776306,0.736907,2.743963,-0.368711,11.382589,57.916264,93.642738
352,882885278,112.933540,-52.268871,95.287109,0.977578,2.097666,0.517558,-6.354861,60.548119,95.197098
353,882901945,111.852982,-54.109852,95.910385,0.653784,2.760135,0.602839,-33.406143,61.690147,93.558449
354,882918612,110.371201,-55.917568,96.629662,-0.292995,3.425325,0.379449,-52.052780,61.032951,92.220795
355,882935279,108.567390,-57.685551,97.408577,-0.048237,3.055021,0.616916,-67.626236,58.350430,91.414650
356,882951946,106.497345,-59.348827,98.280136,-0.285435,3.688521,0.587648,-78.110847,54.962456,86.846252
357,882968613,104.280128,-60.939964,99.255432,-0.140925,3.040129,0.932886,-80.785515,52.270367,84.201973
358,882985280,101.987411,-62.461533,100.357811,-1.136371,2.331600,1.172202,-77.828316,50.121613,81.648964
359,883001947,99.732330,-63.947456,101.574867,-1.767433,1.875743,1.447795,-68.622871,47.970039,81.201881
360,883018614,97.488640,-65.367760,102.914589,-2.314081,2.157507,1.372664,-60.494652,45.618904,78.935509
361,883035281,95.259933,-66.719917,104.478485,-1.704510,2.476207,0.654015,-46.480900,45.726673,76.203033
362,883051948,93.279312,-67.883102,105.894638,-1.229734,3.347982,0.546136,-38.974144,36.751137,66.944336
363,883068615,91.764511,-68.876984,107.133362,-1.349050,3.328407,0.308646,-20.328491,28.837357,58.140450
364,883085282,90.667999,-69.697823,108.119896,-1.381730,2.578602,0.575039,-8.958695,20.832357,48.544220
365,883101949,89.927750,-70.381493,108.833160,-2.000983,1.985754,0.936866,-2.721175,13.681530,40.672012
366,883118616,89.395172,-70.972656,109.350677,-2.040227,1.373673,1.035407,-1.187052,8.930721,35.244011
367,883135283,89.175156,-71.506920,109.672791,-2.578360,1.711442,0.651833,6.565706,4.690439,31.830564
368,883151950,89.154594,-71.864204,109.931473,-2.113002,1.146233,1.190866,14.954002,3.446702,21.196049
369,883168617,89.425568,-72.216316,110.021645,-2.183750,1.439435,0.093735,22.860220,0.298511,20.822685
370,883185284,89.939171,-72.453453,109.988022,-1.507583,0.911558,0.546216,30.343693,-1.791705,13.889225
371,883201951,90.623909,-72.624023,109.779701,-1.171772,0.751622,0.622368,30.606310,-4.796162,9.911979
372,883218618,91.391945,-72.770622,109.422997,-1.133159,0.586181,0.610730,27.090433,-7.304391,8.561768
373,883235285,92.128647,-72.873322,109.018295,-1.147436,0.406862,0.517381,22.445869,-8.070169,6.027622
374,883251952,92.968544,-72.891556,108.537216,-0.781142,0.390310,0.373770,24.253092,-9.524554,1.115071
375,883268619,94.005821,-72.872025,107.880257,-0.469997,0.434079,0.353077,26.005402,-12.736375,-0.821747
376,883285286,95.172592,-72.834496,107.050728,-0.425823,0.343088,0.305284,23.884996,-15.891921,-1.429564
377,883301953,96.376053,-72.788948,106.125008,-0.425021,0.302782,0.385300,20.577650,-17.691046,-1.425479
378,883318620,97.562874,-72.718430,105.165619,-0.540106,0.203633,0.476932,17.667994,-18.538439,-2.488971
379,883335287,98.804626,-72.629890,104.137398,-0.461381,0.391855,0.450219,17.038191,-20.025236,-3.002635
380,883351954,100.017036,-72.547295,103.116112,-0.300301,0.423936,0.332586,15.707989,-19.982635,-2.256074
381,883368621,101.169243,-72.471863,102.128273,-0.103893,0.500096,0.180270,14.025137,-19.425310,-1.534665
382,883385288,102.208443,-72.379280,101.222542,-0.105338,0.855528,0.033276,11.966650,-18.279135,-2.478532
383,883401955,103.125450,-72.260277,100.400352,-0.319489,1.001657,0.027653,9.444330,-17.270639,-4.048938
384,883418622,104.039574,-72.101608,99.607895,-0.641410,1.036216,0.267718,11.000910,-17.469044,-6.208208
385,883435289,105.056137,-71.928535,98.826393,-0.855879,0.903914,0.613920,17.820904,-17.712568,-6.793694
386,883451956,106.249687,-71.747025,98.010292,-1.078026,0.804820,0.528275,26.501801,-18.723927,-6.748614
387,883468623,107.681953,-71.547661,97.142326,-1.029873,0.833604,0.424438,37.926361,-20.261955,-7.044269
388,883485290,109.262619,-71.317337,96.251160,-0.811095,0.894091,0.224303,45.561741,-21.617214,-8.104459
389,883501957,110.885063,-71.020729,95.337639,-0.561061,0.827884,0.186697,46.886295,-23.815329,-11.043169
390,883518624,112.384178,-70.639870,94.488388,-0.524742,0.614341,0.153631,43.215759,-25.071936,-15.468630
391,883535291,113.729004,-70.198547,93.748726,-0.748128,0.450049,0.184947,40.281063,-25.152760,-18.940727
392,883551958,114.876190,-69.727486,93.134613,-0.443687,0.155675,0.213178,35.615753,-24.237005,-20.969196
393,883568625,115.912003,-69.246460,92.614220,-0.078831,-0.033904,0.175878,34.301281,-23.361675,-21.783728
394,883585292,116.945274,-68.743515,92.188255,-0.036274,-0.061795,0.052840,39.532307,-22.737179,-23.345346
395,883601959,118.092705,-68.230049,91.789162,0.136012,0.051414,-0.224779,47.963924,-23.127035,-23.661362
396,883618626,119.212044,-67.735817,91.389626,0.665433,-0.199844,-0.259738,46.322803,-23.214264,-22.102224
397,883635293,120.077278,-67.250931,91.041283,0.768502,-0.300202,-0.123754,34.007950,-22.458101,-21.718479
398,883651960,120.570328,-66.738853,90.785629,0.460804,0.206752,0.105123,16.853947,-21.807573,-23.871958
399,883668627,120.777008,-66.175308,90.602509,-0.166693,0.915918,0.218227,3.722675,-22.146862,-27.217751
400,883685294,120.839035,-65.574677,90.363724,-0.152661,0.930051,0.206479,-7.954090,-24.612034,-28.332479
401,883701961,120.885223,-64.932564,90.042374,-0.175003,1.019856,0.333761,-13.348461,-27.818150,-29.312416
402,883718628,121.109566,-64.257515,89.576538,-0.426296,1.236547,0.537170,-10.398342,-32.265133,-28.927135
403,883735295,121.679001,-63.559330,88.945572,-0.212597,0.961967,0.792737,1.555605,-37.162491,-27.474693
404,883751962,122.430870,-62.839176,88.260590,-0.308929,0.958613,1.088524,9.808434,-39.769176,-27.177582
405,883768629,123.490501,-62.129669,87.544395,-0.816469,0.963805,0.990334,26.851215,-40.950859,-25.314661
406,883785296,124.969322,-61.420990,86.759895,-0.782934,1.083275,0.589947,48.632664,-43.460468,-23.034094
407,883801963,126.737373,-60.699215,85.952866,-0.515200,1.100714,0.163528,65.077896,-45.498474,-21.781532
408,883818630,128.696136,-59.941551,85.124138,-0.018743,0.640074,0.113154,75.689026,-48.437576,-21.303862
409,883835297,130.616562,-59.153366,84.373955,0.261119,0.366666,0.125260,77.786209,-48.902653,-22.252823
410,883851964,132.321228,-58.346603,83.742996,0.059879,0.269883,0.218629,71.275093,-47.938560,-23.663328
411,883868631,133.714661,-57.492046,83.219116,-0.112482,0.411265,0.079900,58.332882,-48.360691,-26.493534
412,883885298,134.677429,-56.542027,82.771332,0.608672,0.412876,-0.084929,36.584682,-51.401325,-31.061340
413,883901965,134.977310,-55.580425,82.510597,0.488965,0.219967,-0.214464,6.368351,-48.055035,-35.147697
414,883918632,134.711548,-54.588249,82.452080,-0.256772,0.037124,-0.358426,-17.466722,-44.592525,-41.175476
415,883935299,134.112793,-53.624962,82.589691,-0.232258,-0.576890,0.246095,-27.878216,-38.172264,-45.057011
416,883951966,133.392670,-52.741173,82.919044,0.004178,-0.819504,0.178659,-26.034090,-29.295883,-46.870369
417,883968633,132.949890,-51.995327,83.343552,-0.246700,-1.008939,0.088694,-5.043297,-20.449575,-43.648067
418,883985300,132.932098,-51.371510,83.738686,-0.171965,-1.074072,0.572359,18.889673,-15.904729,-37.782803
419,884001967,133.254883,-50.853519,84.077667,-0.113746,-0.863637,0.747612,36.550339,-13.072580,-31.777544
420,884018634,133.777939,-50.415096,84.395302,-0.029284,-0.619089,0.630597,47.470676,-10.514066,-27.750654
421,884035301,134.326263,-49.978134,84.728020,-0.140077,-0.242141,0.392744,49.582397,-10.210764,-28.069878
422,884051968,134.861237,-49.522678,85.043808,-0.365572,0.107587,0.431076,47.913773,-11.635278,-28.394743
423,884068635,135.429062,-49.015800,85.271133,-0.497802,0.446907,0.563971,45.760952,-16.450335,-28.098917
424,884085302,136.046539,-48.435745,85.416611,-0.488449,0.618104,0.631631,44.957893,-22.078087,-28.751299
425,884101969,136.631577,-47.753414,85.527611,-0.011453,0.612354,0.581290,41.409210,-27.721762,-31.820206
426,884118636,137.187943,-46.968479,85.670944,-0.406976,0.797801,0.134106,41.059132,-31.593016,-36.765598
427,884135303,137.846497,-46.082253,85.805717,-0.440528,0.802528,0.105076,46.728115,-36.643242,-40.350086
428,884151970,138.605621,-45.086952,85.920631,-0.536391,0.828559,0.126183,51.815041,-42.513676,-43.718330
429,884168637,139.413910,-43.994152,85.967422,0.668315,0.242912,0.333049,51.807217,-49.376572,-44.854534
430,884185304,139.942398,-42.870487,86.058899,1.062070,-0.126223,0.500916,36.825691,-50.028091,-46.991882
431,884201971,140.373596,-41.763988,86.192932,0.299312,-0.030756,0.451734,32.633308,-48.373531,-47.420837
432,884218638,141.024536,-40.706322,86.301163,0.022772,-0.260531,0.755931,44.688530,-47.222500,-44.292027
433,884235305,141.886124,-39.704929,86.360054,0.636288,-0.084404,0.421135,55.325642,-46.521233,-39.860607
434,884251972,142.785416,-38.769356,86.407883,0.941536,0.033362,-0.035628,57.121132,-44.294540,-36.358704
435,884268639,143.626709,-37.856678,86.487106,0.734144,0.141922,-0.146308,54.779140,-42.838840,-36.077930
436,884285306,144.468582,-36.916420,86.616699,0.304621,0.416870,-0.361281,56.588638,-43.271729,-38.406628
437,884301973,145.326050,-35.934689,86.810425,-0.137010,0.616006,-0.462446,59.712212,-44.042133,-41.806602
438,884318640,146.253525,-34.919453,87.045593,-0.048168,0.652925,-0.165045,65.185104,-45.146431,-44.033745
439,884335307,147.197922,-33.867157,87.417786,-0.044646,1.028024,-0.088087,70.641068,-43.918179,-50.321819
440,884351974,147.984711,-32.810421,87.972855,0.187165,0.999854,-0.111183,66.873322,-39.867599,-57.743473
441,884368641,148.501236,-31.765425,88.699661,0.214654,0.698457,-0.140823,55.651237,-35.168011,-64.611656
442,884385308,148.739151,-30.703268,89.557610,-0.346771,0.913605,-0.119419,42.341824,-32.750771,-71.029037
443,884401975,148.661392,-29.578333,90.496468,-0.214389,0.809631,0.149114,24.990938,-33.636108,-76.946136
444,884418642,148.382385,-28.360989,91.535347,-0.720485,0.612868,0.455835,14.831135,-35.086857,-84.909119
445,884435309,147.993805,-27.074226,92.698204,-0.264637,0.567680,0.405206,10.520436,-34.321945,-93.449440
446,884451976,147.481812,-25.744528,93.978882,-0.325552,0.066662,0.199353,4.844726,-32.003578,-101.045113
447,884468643,147.061508,-24.387693,95.351509,-1.196604,-0.064164,-0.246416,11.066816,-29.424046,-107.035332
448,884485310,147.028488,-22.961157,96.790520,-1.268870,-0.174669,-0.599674,34.079990,-30.076355,-113.176506
449,884501977,147.194519,-21.438536,98.407166,-0.773909,0.037184,-1.964478,47.999290,-29.221519,-125.281219
450,884518644,147.229858,-19.719463,100.277023,0.482687,-0.849313,-2.329636,42.950489,-31.103064,-144.411453
451,884535311,147.058624,-17.724779,102.376205,-0.036241,-1.715111,-1.480569,31.558981,-37.085716,-165.377274
452,884551978,146.871933,-15.444846,104.752106,-1.051889,-3.183021,-1.294869,30.908257,-41.444107,-189.354019
453,884568645,147.198441,-13.089581,107.355362,-0.033641,-4.732423,-1.252451,59.489323,-37.424389,-204.127548
454,884585312,147.744507,-11.018398,110.153114,1.863106,-4.676672,-0.387322,69.220291,-17.711075,-205.442154
455,884601979,148.126404,-9.264559,113.099251,2.338219,-3.574171,-1.432619,55.452095,2.010765,-203.512848
456,884618646,148.177536,-7.620786,115.906006,1.590887,-3.006087,-1.615930,29.223324,2.951936,-193.714706
457,884635313,148.093277,-6.152079,118.287460,0.858056,-1.730118,0.428370,13.516183,-1.104196,-167.173279
458,884651980,147.907654,-5.099833,120.004745,0.441879,0.110282,1.846166,0.405886,-0.357559,-120.573593
459,884668647,148.030502,-4.520999,120.834885,-0.865274,0.456537,0.683061,12.993198,-4.278788,-60.650501
460,884685314,148.818253,-4.217057,120.905212,-2.938157,-1.577885,-0.907379,49.029907,-14.492871,-13.296439
461,884701981,150.067657,-4.052285,120.555069,-0.311074,-1.103668,-1.545041,74.872749,-20.328886,12.856352
462,884718648,150.990631,-3.912420,120.141373,3.176977,0.545962,-0.950948,55.071968,-20.647974,17.271940
463,884735315,151.035431,-3.850221,119.905952,3.153990,0.845987,0.580950,3.166175,-11.246533,10.367422
464,884751982,150.533417,-3.810817,119.885696,0.632086,0.016947,1.101492,-28.749632,-3.800052,-0.243257
465,884768649,149.980225,-3.743979,119.976341,-1.111329,-0.369864,1.097590,-31.378447,-1.934944,-6.842072
466,884785316,149.625015,-3.633626,120.089783,-1.257786,-0.489633,0.542287,-19.425755,-3.448512,-9.347601
467,884801983,149.430359,-3.519680,120.151131,-0.710090,-0.197961,0.082395,-10.008219,-5.171130,-6.782490
468,884818650,149.278259,-3.385458,120.196075,-0.357440,-0.149591,0.154701,-7.526539,-6.702002,-6.566882
469,884835317,149.121613,-3.276411,120.261093,-0.223193,-0.078485,0.549217,-7.738651,-4.769074,-6.845856
470,884851984,149.046173,-3.234983,120.308235,-0.062862,0.053766,0.631845,-2.931489,-1.826301,-3.846989
471,884868651,149.080170,-3.237423,120.310272,-0.298979,-0.250429,0.039729,3.478787,-0.955738,-0.173961
472,884885318,149.216278,-3.270127,120.264168,-0.323806,-0.381505,-0.140854,9.439148,-0.874111,3.231370
473,884901985,149.364838,-3.348736,120.167389,0.004125,-0.155854,0.356088,10.005831,-0.045373,7.243526
474,884918652,149.404907,-3.472220,120.022308,-0.044330,-0.055608,0.542020,3.312819,0.811007,11.105985
475,884935319,149.261459,-3.648910,119.856804,-0.310338,-0.055103,0.375659,-7.796845,2.926311,13.785631
476,884951986,148.890518,-3.883639,119.655815,0.030583,0.140167,0.557428,-21.625797,4.759243,17.415409
477,884968653,148.180878,-4.202954,119.383362,0.407749,0.613034,0.586283,-42.305992,6.694032,23.761686
478,884985320,147.168106,-4.585901,119.038147,-0.261236,0.069342,-0.014556,-60.923485,7.237890,29.585773
479,885001987,145.924545,-4.987935,118.612152,-0.236807,-0.184843,-0.112700,-75.318924,4.948577,34.398720
480,885018654,144.441284,-5.399833,118.083397,0.410178,0.153260,0.244505,-90.441093,1.119000,39.896648
481,885035321,142.565414,-5.895017,117.425621,1.280483,0.491708,1.059660,-115.007820,-0.605005,49.090611
482,885051988,140.287720,-6.493906,116.639084,1.953616,0.128858,0.662973,-140.318542,-2.286261,58.930981
483,885068655,137.689331,-7.138812,115.726891,1.774132,-0.718872,-0.845965,-160.951614,-7.581810,66.247345
484,885085322,135.113876,-7.742125,114.666580,0.580381,-1.216492,-1.308416,-161.314697,-18.396765,70.498901
485,885101989,132.758072,-8.371619,113.482536,0.843506,-0.746183,-0.265273,-149.855057,-25.546015,75.856514
486,885118656,130.463867,-9.155722,112.252274,1.321745,-0.662560,0.241641,-147.449310,-24.395411,83.477539
487,885135323,128.344025,-10.064843,110.951538,1.061207,-0.675744,0.403269,-138.766068,-25.923136,90.855064
488,885151990,126.506729,-11.042874,109.568657,1.046956,-0.806033,0.269726,-123.981079,-30.200487,96.037376
489,885168657,124.993614,-12.031258,108.161568,0.071778,-0.833838,-0.190206,-106.218033,-33.566048,96.322830
490,885185324,123.936432,-13.049422,106.728210,-0.081325,-1.175247,0.342963,-80.653114,-35.716557,97.740341
491,885201991,123.373695,-14.139470,105.285362,-0.178736,-1.415830,0.168203,-52.672318,-34.865662,100.942230
492,885218658,123.203201,-15.308581,103.827171,0.340957,-1.282204,-0.212215,-31.032070,-33.299080,104.952103
493,885235325,123.178802,-16.508184,102.326401,0.912613,-1.149523,-0.569920,-24.713585,-34.126198,107.517250
494,885251992,123.088455,-17.695904,100.776253,1.122748,-1.066783,-0.969789,-31.341789,-36.552914,108.155167
495,885268659,122.833443,-18.873686,99.185387,1.008298,-1.268485,-0.897841,-43.810787,-38.654419,108.497299
496,885285326,122.384109,-20.057222,97.598976,1.109290,-1.298091,-0.269388,-57.238598,-38.379925,108.082207
497,885301993,121.815376,-21.316853,96.055374,0.674534,-1.727967,0.255630,-65.397736,-34.291992,109.979248
498,885318660,121.369720,-22.661453,94.534904,0.874417,-2.170195,0.101509,-59.451080,-30.835297,112.950615
499,885335327,120.914635,-23.997330,92.952812,2.052121,-1.908875,-2.155498,-63.449986,-34.194019,113.608871
500,885351994,120.091461,-25.303637,91.280983,1.940917,-1.509105,-2.233778,-89.771538,-39.815746,113.751740
501,885368661,119.012550,-26.579348,89.562584,0.132121,-1.259459,-1.826693,-108.366608,-43.942169,112.266403
502,885385328,118.354164,-27.942833,87.771263,0.205690,-1.773413,0.662016,-87.266907,-45.594540,117.584221
503,885401995,117.820900,-29.426710,85.975349,1.035004,-2.117418,0.770835,-82.249184,-42.519878,123.016800
504,885418662,117.241905,-30.931789,84.187881,0.643139,-1.231852,-0.176850,-87.180847,-41.509159,122.906738
505,885435329,116.655685,-32.321114,82.276237,1.507304,-0.793912,-0.982144,-93.844917,-50.325329,118.550545
506,885451996,116.226761,-33.572620,80.109238,1.523642,-1.085030,-0.705333,-94.966248,-65.309570,115.803841
507,885468663,116.027908,-34.782978,77.704262,1.020782,-1.824546,0.667788,-91.505753,-76.257362,117.758995
508,885485330,116.115814,-36.165104,75.330788,-0.607548,-2.040872,1.813243,-75.878448,-68.785164,125.450699
509,885501997,116.594460,-37.818321,73.239113,-1.032511,-1.001905,1.347404,-45.312923,-46.847355,133.383469
510,885518664,117.659241,-39.487576,71.133415,-0.494913,1.960803,-0.291144,-13.547858,-43.199532,134.125488
511,885535331,119.375069,-41.033733,68.850266,0.399830,2.490361,-1.079037,15.883145,-48.627567,131.411240
512,885551998,121.283615,-42.572048,66.549202,0.356527,0.985800,0.829841,23.943520,-43.298698,131.613022
513,885568665,123.126060,-44.151104,64.298729,-0.102862,0.602579,1.255124,19.299742,-33.647625,132.453979
514,885585332,124.844933,-45.795372,62.107582,-0.419312,0.635368,1.268566,11.676167,-23.047815,133.756897
515,885601999,126.338829,-47.538715,59.933723,-0.299055,-0.023625,1.383848,-3.781354,-12.989670,137.114639
516,885618666,127.638313,-49.267773,57.603748,1.581579,0.403032,0.776285,-25.117661,-12.796021,138.662659
517,885635333,129.236435,-50.841816,55.201622,-1.300748,5.107871,-0.172994,-13.146729,-14.862528,131.457199
518,885652000,131.646286,-52.538551,52.770004,-4.320094,-2.394536,1.446692,31.543327,-3.894217,136.076965
519,885668667,133.080658,-54.389923,50.617039,0.325358,0.164345,1.184547,-16.287664,16.957167,133.834518
520,885685334,134.918533,-56.236229,48.425682,-1.503786,1.529140,-0.565969,3.591299,22.052143,131.604813
521,885702001,136.622131,-58.128326,46.361378,-2.249472,0.652196,-0.613828,-0.443050,33.450294,127.218437
522,885718668,138.304321,-59.907261,44.398182,-1.358401,2.883650,-1.785583,1.364070,36.593929,116.771156
523,885735335,140.163773,-61.579052,42.381123,-1.023182,1.047234,-0.659104,7.396025,36.290783,110.209137
524,885752002,141.833771,-63.201286,40.415352,-1.591905,0.537532,0.230551,-2.903595,40.186970,103.646393
525,885768669,143.209030,-64.812347,38.570850,-1.198982,0.173926,0.241570,-15.543522,46.156727,97.215187
526,885785336,143.978363,-66.406792,36.983639,-1.210749,1.214104,0.168901,-39.162556,52.616909,88.340073
527,885802003,144.246078,-67.886635,35.627983,-0.886398,2.789645,-0.495950,-57.473125,52.387787,77.544472
528,885818670,144.636444,-69.176430,34.297012,-0.881655,3.406298,-0.643193,-49.486443,44.934372,68.671814
529,885835337,145.169006,-70.360046,33.091579,-1.169921,2.197939,0.214567,-34.507942,42.703430,61.171017
530,885852004,145.683655,-71.502411,32.226826,-1.805581,3.272971,0.354594,-16.756962,45.805344,52.716030
531,885868671,146.702454,-72.616669,31.644495,-2.681686,3.575414,0.798407,29.279940,48.557068,45.987415
532,885885338,147.541351,-73.614815,31.407124,0.166076,0.955943,-0.111668,38.099762,47.056137,35.809944
533,885902005,147.662338,-74.393753,31.657005,0.685119,3.070116,0.049784,23.066277,40.681896,21.375067
534,885918672,147.788406,-75.084175,31.526869,-0.116652,-1.141303,0.041389,1.422006,32.926216,23.664110
535,885935339,147.055679,-75.643425,31.991446,0.550722,1.709730,-0.041495,-15.598977,31.070253,11.946159
536,885952006,146.157364,-76.057091,32.566116,0.182949,1.471210,0.382559,-19.066545,24.358959,6.427203
537,885968673,145.847198,-76.417641,33.097042,-0.793507,3.061470,0.410589,13.722440,21.169094,5.611609
538,885985340,146.232529,-76.744553,33.469173,-0.096123,1.372585,0.785928,46.230148,18.159367,6.439634
539,886002007,146.785980,-77.023102,33.963772,-0.110704,1.598738,0.991040,63.502373,16.649099,3.380575
540,886018674,147.019272,-77.260399,34.648518,-0.505488,0.805530,1.308621,55.437969,15.912593,-0.117282
541,886035341,146.858871,-77.497238,35.277008,-0.077866,-0.014715,1.127212,28.563505,15.396445,0.609104
542,886052008,145.847336,-77.667572,36.054897,0.656598,0.451508,0.865211,-13.717513,13.061833,-2.928303
543,886068675,144.298676,-77.726250,36.857613,0.730396,1.060059,0.695168,-44.468914,7.752989,-6.635415
544,886085342,142.684753,-77.734947,37.554047,-0.419993,0.742915,1.151029,-54.605938,4.688743,-7.068951
545,886102009,141.593887,-77.721901,37.956066,-0.252247,0.197258,0.787900,-40.489597,1.522319,-4.769727
546,886118676,140.971298,-77.771469,38.138268,-0.724381,-0.460477,0.962584,-25.280308,2.765544,-0.193082
547,886135343,140.373825,-77.912445,38.527397,-1.611815,0.191118,0.898826,-11.626778,8.654839,1.314272
548,886152010,139.988876,-78.038559,39.023548,-0.020302,0.977754,0.105039,7.407958,8.792198,-0.157377
549,886168677,139.643845,-78.145721,39.467621,0.257650,-0.035088,0.133071,6.763682,7.464740,-0.297479
550,886185344,139.236786,-78.188461,39.968838,0.379002,0.384380,-0.243676,6.403299,4.962085,-3.262099
551,886202011,138.797379,-78.193367,40.418953,0.558542,-0.503817,0.189910,1.462056,2.848716,-4.223330
552,886218678,138.089157,-78.235237,40.949055,-0.572082,-0.995448,0.364975,-9.959567,5.186350,-3.437443
553,886235345,137.016708,-78.320984,41.743149,-1.017241,-0.170243,0.330936,-16.302044,9.332555,-3.904136
554,886252012,135.910538,-78.336998,42.710876,-0.010746,1.034041,-0.375434,-8.112713,7.797196,-8.084539
555,886268679,134.669876,-78.251373,43.938931,-0.475871,1.589948,-0.223987,-0.888582,5.874118,-14.477308
556,886285346,133.445770,-78.053658,45.352100,-0.588390,1.282775,-0.201785,10.931784,3.271075,-20.874262
557,886302013,132.367279,-77.776649,46.818024,-0.643571,0.532062,0.069113,22.685469,1.185636,-24.957767
558,886318680,131.346130,-77.451843,48.416012,-1.683731,0.646190,0.470806,33.773834,1.327676,-28.489792
559,886335347,130.273590,-77.055603,50.137741,-1.046241,0.485639,0.327514,37.792854,0.734188,-33.143795
560,886352014,129.224442,-76.550919,51.989536,-0.269851,1.402681,-0.025629,46.613083,-0.836611,-39.757084
561,886368681,128.461227,-75.955376,53.869560,-0.415013,1.091235,0.110958,65.159241,-2.511086,-44.900795
562,886385348,127.758911,-75.262672,55.842175,-1.186408,1.407357,0.302694,73.887192,-3.487435,-51.123440
563,886402015,127.193726,-74.525055,57.896927,-1.495474,0.922363,0.259358,86.499718,-2.413677,-54.947201
564,886418682,126.722397,-73.757637,60.011593,-0.840053,0.267155,0.274058,95.146881,-0.960198,-57.918140
565,886435349,126.237923,-72.926239,62.161770,-0.550598,0.410789,0.012188,95.904823,-0.908473,-62.381073
566,886452016,125.977196,-71.954346,64.233719,-0.315847,1.716326,-0.380204,104.251129,-5.049913,-69.495796
567,886468683,125.940987,-70.841431,66.120712,0.035279,1.329096,-0.503686,106.508957,-10.973310,-75.552490
568,886485350,126.059013,-69.646690,67.798180,0.020243,0.327442,0.014830,103.166740,-15.621777,-78.288376
569,886502017,126.129318,-68.394836,69.261673,0.047303,-0.256627,0.453276,87.581703,-19.861364,-79.516861
570,886518684,125.821388,-67.151093,70.712845,-0.617487,-0.305577,0.890222,63.492435,-18.206392,-80.036949
571,886535351,125.535912,-65.801247,71.870369,0.610270,0.127152,-0.145901,47.912991,-25.746794,-82.251915
572,886552018,125.356934,-64.342667,72.803497,0.243393,0.902570,-0.333308,41.400955,-32.561298,-85.274719
573,886568685,125.419174,-62.840488,73.547562,-0.323878,0.249141,0.197600,45.084728,-37.048664,-85.276466
574,886585352,125.659264,-61.359055,74.198837,-0.344911,-0.490348,0.733781,50.307377,-37.829624,-83.256912
575,886602019,126.138962,-59.921352,74.736885,-0.525795,-0.260936,0.832550,58.273090,-38.806366,-79.451180
576,886618686,127.011986,-58.464119,75.140800,-0.973395,0.943334,0.287454,74.552498,-43.182884,-77.907066
577,886635353,128.513992,-56.938488,75.380402,-0.743146,1.680640,-0.393853,103.618706,-51.039680,-77.367188
578,886652020,130.415268,-55.377697,75.532524,-0.501357,0.652359,0.315902,122.995522,-56.665630,-75.834442
579,886668687,132.508102,-53.835327,75.690208,-0.206736,-0.009533,0.902778,134.615829,-58.245171,-73.284607
580,886685354,134.557602,-52.351162,75.858002,0.174550,-0.648576,1.574636,132.347977,-58.039528,-69.024048
581,886702021,136.841888,-50.954632,76.014175,-0.487545,0.078449,2.143248,145.736160,-57.003998,-62.977219
582,886718688,139.564087,-49.466774,76.004356,-1.252416,1.899140,1.862530,164.201248,-67.910713,-59.508347
583,886735355,143.157181,-47.802830,75.783447,-1.243631,4.121297,0.613416,206.945648,-84.579323,-55.795612
584,886752022,146.914001,-45.962387,75.556976,0.131416,3.254486,1.537263,216.784012,-96.974678,-55.976963
585,886768689,150.414490,-44.113937,75.500298,-0.191806,2.285940,2.607180,208.918304,-97.160187,-55.932110
586,886785356,153.757614,-42.353001,75.624870,0.052106,1.508909,2.970150,206.992935,-92.019646,-54.572426
587,886802023,156.395233,-40.591446,75.948036,0.953586,0.954226,2.282788,172.388275,-90.946114,-58.005108
588,886818690,158.204498,-38.720387,76.498451,-0.283239,2.161823,0.665114,130.927063,-94.986298,-67.050186
589,886835357,159.207321,-36.646439,77.253929,-0.232489,1.806688,-0.520784,89.175919,-104.156319,-78.876099
590,886852024,159.753159,-34.439186,78.185211,-0.522478,0.957790,-0.186344,66.531418,-109.350189,-89.262863
591,886868691,160.090561,-32.178593,79.293449,0.296412,-0.319570,0.659520,58.060966,-109.576080,-99.009071
592,886885358,160.493561,-29.936665,80.625740,-0.183403,-0.472255,0.160833,66.724480,-104.805450,-110.075142
593,886902025,161.152603,-27.695421,82.130692,-0.513162,-0.564133,-1.095107,84.372772,-102.286957,-119.137833
594,886918692,162.132217,-25.439568,83.740585,-0.518530,-0.685295,-1.833029,103.283798,-102.519951,-124.858139
595,886935359,163.513931,-23.144701,85.426758,-0.669612,-1.098632,-1.583500,125.822823,-105.589020,-128.981796
596,886952026,165.207733,-20.895117,87.189392,0.998653,-1.767146,-0.431024,142.581390,-104.819435,-131.013184
597,886968693,167.138351,-18.848337,89.116829,1.389413,-2.231202,-0.368484,156.453323,-94.528740,-135.146133
598,886985360,169.065643,-16.935646,91.246597,1.120858,-2.054446,-1.239638,156.219345,-88.487503,-142.835098
599,887002027,170.730804,-15.041395,93.623291,0.697527,-2.281891,-2.077093,140.524429,-89.102097,-155.053268
600,887018694,172.167725,-13.221778,96.336021,-0.631020,-3.175173,-2.149766,127.299500,-85.734398,-172.464279
601,887035361,173.432129,-11.468848,99.328163,1.135001,-3.993294,-2.405161,115.598061,-83.588112,-187.314621
602,887052028,174.187286,-9.824644,102.587234,2.683157,-4.159268,-1.834435,82.806335,-78.553520,-201.814514
603,887068695,174.206665,-8.328837,106.121956,3.642474,-4.304644,-2.169234,36.021160,-69.285835,-217.537430
604,887085362,173.425278,-6.859072,109.959900,2.197538,-4.774959,-2.736017,-15.011414,-64.224533,-236.530212
605,887102029,172.003067,-5.335336,113.890846,2.555013,-4.596093,-3.074773,-58.813053,-62.053711,-244.324997
606,887118696,170.689758,-3.690186,117.540703,2.772708,-3.166652,-0.913950,-60.101765,-65.821358,-230.780106
607,887135363,170.421509,-2.217353,120.397728,2.337268,0.467156,3.670485,-5.817319,-60.158154,-183.457397
608,887152030,171.660858,-1.382663,121.916473,-0.708209,3.701408,4.968272,78.669006,-36.374146,-97.856804
609,887168697,174.049744,-0.823278,122.198997,-3.882618,-0.899245,-1.255670,145.118347,-32.301804,-21.086458
610,887185364,175.683762,-0.233442,121.996841,0.419181,-0.978470,-3.978638,99.369537,-37.448536,8.825689
611,887202031,176.065445,0.218067,121.827614,3.440912,0.875663,-2.630149,24.340588,-28.859325,8.090819
612,887218698,175.370407,0.459661,121.823692,3.239852,1.687787,0.828905,-40.240574,-15.574187,-0.932590
613,887235365,173.993759,0.516098,122.054222,1.371058,1.474275,4.112535,-81.238464,-3.187474,-14.171834
614,887252032,172.596786,0.527788,122.355530,-1.028871,0.029507,3.006532,-82.492561,0.315524,-18.123718
615,887268699,171.967377,0.564843,122.448982,-1.198439,-0.668414,1.521739,-36.334553,-2.551191,-5.944774
616,887285366,172.106995,0.591952,122.311066,-1.074744,-0.902648,1.162292,9.936307,-3.858786,7.878913
617,887302033,172.823288,0.520842,121.998405,0.523389,0.475692,1.780065,44.627274,0.668849,19.061274
618,887318700,173.400589,0.350906,121.671867,1.038698,1.027017,1.292701,36.257225,6.671030,20.584089
619,887335367,173.321075,0.155154,121.479958,0.410961,0.154488,-0.390264,-3.242506,9.232085,12.706642
620,887352034,172.618027,0.039792,121.384430,-0.501850,-0.521845,-0.286248,-40.692432,5.066549,6.444713
621,887368701,171.726669,-0.036874,121.308083,-0.424035,-0.487207,-0.015639,-52.005520,2.832555,5.075994
622,887385368,171.025620,-0.140255,121.160660,-0.894792,-0.485808,0.175605,-40.603920,3.706712,9.586540
623,887402035,170.682831,-0.316528,120.948250,-0.788635,-0.124415,0.711403,-19.150860,7.315687,14.169993
624,887418702,170.773438,-0.584064,120.699661,-0.630321,-0.073472,0.642931,6.780404,12.337090,17.214731
625,887435369,171.142593,-0.904912,120.408478,-0.602131,-0.389764,-0.106598,23.379595,15.162493,20.183424
626,887452036,171.505356,-1.267285,120.075584,-0.262686,-0.063287,-0.087975,22.841570,17.377319,22.927925
627,887468703,171.700119,-1.659472,119.697220,-0.352275,-0.143194,-0.411287,12.557544,18.860662,25.795984
628,887485370,171.726807,-2.083546,119.244720,-0.475024,-0.146086,-0.621579,2.164136,20.162968,30.429790
629,887502037,171.660446,-2.554817,118.653954,-0.253724,-0.000085,-0.319567,-3.969728,21.758482,39.031872
630,887518704,171.628494,-3.096365,117.903191,-0.326313,-0.090950,0.208826,-2.693025,24.503029,49.149445
631,887535371,171.805801,-3.696108,116.976677,-0.382129,-0.192689,0.456642,8.786757,26.507547,60.004894
632,887552038,172.277496,-4.306029,115.866364,-0.278202,-0.279252,0.740438,25.089010,25.933683,70.792328
633,887568705,172.977982,-4.852070,114.616600,-0.438878,-0.545419,0.883675,37.475304,21.793146,78.241547
634,887585372,174.055847,-5.242561,113.307556,-0.830916,-1.216394,-0.241818,59.186569,13.340841,80.288147
635,887602039,175.699539,-5.466452,112.014854,-1.366517,-1.657259,-0.481904,92.798378,5.383960,78.026978
636,887618706,177.538437,-5.673965,110.727890,-0.794155,-1.152417,-0.298251,104.240181,6.799892,77.366318
637,887635373,179.022491,-5.927715,109.509827,-0.074053,-0.726722,-0.617240,83.052879,11.943819,73.047386
638,887652040,-179.965210,-6.182239,108.330994,0.399083,-0.572460,-0.292406,54.673813,13.603287,70.371742
639,887668707,-179.330475,-6.406306,107.137817,0.172722,-0.799526,-0.078942,31.631340,12.796531,70.989632
640,887685374,-179.016479,-6.592046,105.916428,0.030040,-1.025259,-0.620142,11.941726,11.113664,72.554169
641,887702041,-179.017517,-6.750286,104.687836,0.020072,-1.240685,-0.798977,-7.231809,9.675429,72.955307
642,887718708,-179.266434,-6.940859,103.412720,0.495557,-1.151208,-0.535074,-22.661842,11.503504,75.691322
643,887735375,-179.665039,-7.180039,102.110756,0.815811,-1.152466,-0.412467,-32.126030,14.013235,77.309174
644,887752042,179.911819,-7.447818,100.757713,1.038861,-1.351639,-0.400459,-34.328655,15.187978,80.396713
645,887768709,179.480194,-7.749897,99.349525,1.104116,-1.385598,-0.390116,-35.671448,16.636829,83.755005
646,887785376,179.120056,-7.992603,97.876762,0.731534,-1.761853,-0.727365,-32.308468,12.458104,87.624176
647,887802043,178.973068,-8.128624,96.290245,0.477053,-2.104199,-0.841866,-20.763029,5.568762,94.281830
648,887818710,179.189362,-8.210980,94.537598,0.498031,-2.482476,-0.594759,-0.566229,2.260516,104.073227
649,887835377,179.738968,-8.331787,92.664963,0.608760,-2.336487,-0.597120,18.213667,5.210529,111.162567
650,887852044,-179.444992,-8.350137,90.761536,0.640879,-2.026524,-0.633460,33.798676,0.406436,112.906425
651,887868711,-178.432693,-8.309879,88.864410,0.467234,-1.020286,0.238791,45.649765,-1.302269,112.569817
652,887885378,-177.107285,-8.306295,87.005836,0.839598,-0.451050,0.495672,64.818069,3.110861,110.181755
653,887902045,-175.705597,-8.410693,85.229591,0.673555,-0.112618,0.379203,70.022949,11.894422,104.754303
654,887918712,-174.547287,-8.597516,83.506798,1.196320,0.023959,0.432414,55.632729,18.887615,100.819298
655,887935379,-173.749756,-8.857941,81.857468,1.011287,-0.137649,0.163462,34.266613,24.548342,95.621956
656,887952046,-173.456421,-9.186849,80.300949,0.781836,-0.075561,-0.381881,4.394591,28.919872,89.376648
657,887968713,-173.745041,-9.617496,78.841820,1.174226,0.209540,-0.554913,-30.169609,34.335331,82.869255
658,887985380,-174.638046,-10.193419,77.520699,1.297616,0.283021,-0.495195,-65.757286,41.309345,74.104858
659,888002047,-175.999802,-10.903097,76.351372,1.008022,0.403353,-0.027271,-93.079636,47.093220,65.190567
660,888018714,-177.556274,-11.679990,75.271515,0.366435,0.754226,0.339309,-104.600830,49.133530,60.743790
661,888035381,-179.163193,-12.566419,74.243942,0.600754,0.913815,0.403116,-107.887154,53.906548,58.663647
662,888052048,179.227737,-13.654365,73.272873,0.433029,0.832864,0.173982,-108.281158,64.319038,56.641376
663,888068715,177.761520,-15.001852,72.359474,0.177034,0.809925,-0.528077,-100.052933,78.430176,55.142128
664,888085382,176.324738,-16.501583,71.514046,0.568233,0.367478,-0.640375,-98.495461,86.343430,53.337032
665,888102049,175.010590,-18.061769,70.668617,0.289659,0.660238,0.567504,-92.433388,88.678215,55.309116
666,888118716,173.926788,-19.628942,69.749481,0.453274,0.550381,1.083357,-81.360077,87.548096,60.959427
667,888135383,173.025330,-21.228283,68.803871,0.414911,0.369850,0.509695,-72.408043,88.279419,63.669590
668,888152050,172.235657,-22.899174,67.872192,0.319758,0.201614,-0.158393,-66.897804,91.755600,64.188141
669,888168717,171.521286,-24.630026,67.009468,-0.277512,0.332314,-0.930190,-62.240646,95.089272,61.522533
670,888185384,170.872818,-26.259113,66.181099,-0.374118,0.098544,-0.287539,-58.784073,88.694885,59.263618
671,888202051,170.424484,-27.695286,65.273140,-0.790555,0.560277,0.526958,-50.137676,76.105461,61.855110
672,888218718,170.138809,-28.914814,64.264641,-0.189588,0.320257,0.350618,-44.363583,62.095490,64.811600
673,888235385,169.924606,-30.007193,63.237923,-0.248170,0.521478,-0.333652,-41.684353,54.232189,64.121689
674,888252052,169.816040,-31.008554,62.241348,-0.323946,0.789985,-0.642251,-35.405117,49.046406,61.224991
675,888268719,169.709732,-31.961376,61.318748,-0.358698,0.873929,-1.270012,-33.828434,46.828953,56.554695
676,888285386,169.562607,-32.855331,60.439342,-0.092985,0.328585,-0.406657,-35.648296,43.702885,53.409405
677,888302053,169.515381,-33.734734,59.590546,-0.522565,0.405066,-0.073804,-29.335394,43.111092,51.381126
678,888318720,169.647034,-34.637852,58.818764,-0.610565,0.342874,-0.914304,-16.668077,45.317341,47.413017
679,888335387,169.857773,-35.631584,58.205696,-0.483374,0.384539,-2.290450,-7.077654,52.272942,40.143780
680,888352054,170.026001,-36.848354,57.852524,-0.101116,0.375029,-2.682997,-0.991871,67.849724,29.518274
681,888368721,169.949646,-38.369656,57.840309,0.542772,0.178339,-1.864120,-3.587468,88.736061,16.377861
682,888385388,169.426758,-40.202602,58.139938,1.421936,-0.068897,-1.092828,-18.540319,109.637489,5.930963
683,888402055,168.229599,-42.291660,58.769524,2.071554,-0.330678,-0.785579,-45.465218,127.412621,-3.637007
684,888418722,166.200851,-44.514851,59.680561,2.008989,0.199199,-1.158299,-82.689232,137.810471,-9.264357
685,888435389,163.551437,-46.735409,60.744022,1.107859,1.087300,-0.800232,-111.870209,139.192444,-8.365794
686,888452056,160.772156,-48.924755,61.843872,0.681755,1.273516,-0.080495,-116.358833,137.538666,-1.980767
687,888468723,158.238266,-51.198662,62.983608,0.800918,0.710791,0.949589,-98.114372,142.081680,6.595573
688,888485390,155.834076,-53.519154,64.218987,1.041783,0.605838,1.843755,-84.070656,144.759995,12.588067
689,888502057,153.341187,-55.848270,65.616196,0.980416,0.425067,2.345600,-79.683334,145.916443,16.144024
690,888518724,150.799332,-58.100819,67.094482,0.460188,0.760149,2.116947,-76.667603,140.940475,20.548218
691,888535391,148.276993,-60.113697,68.532455,-0.490202,1.690807,2.345789,-75.822090,125.443024,22.990213
692,888552058,146.011658,-61.810795,69.780029,-1.484594,2.149061,2.253750,-69.007599,104.129707,24.663988
693,888568725,144.199951,-63.160633,70.691109,-1.692553,2.613951,2.093307,-58.771263,79.757248,25.549887
694,888585392,142.807419,-64.181702,71.207291,-1.956224,2.244729,2.168697,-54.348118,56.299305,25.308098
695,888602059,141.703995,-64.914482,71.389435,-2.472554,1.714577,2.503394,-54.901428,36.521870,23.099136
696,888618726,140.951263,-65.451866,71.355415,-3.247617,1.269838,2.671969,-45.586765,23.521349,20.699387
697,888635393,140.558472,-65.863846,71.184227,-3.232693,0.861829,2.552531,-31.505949,15.360681,18.786667
698,888652060,140.417130,-66.178223,70.953812,-3.099256,1.321424,1.940880,-19.698370,9.883602,16.192513
699,888668727,140.408859,-66.428307,70.706818,-2.457427,1.489648,1.172156,-12.653910,6.683011,13.991132
700,888685394,140.571579,-66.621078,70.409622,-2.096520,1.407670,0.759627,-5.186806,3.324153,12.664779
701,888702061,140.731705,-66.756020,70.061996,-1.810399,0.888861,0.693954,-8.154963,-0.047115,11.335505
702,888718728,140.791428,-66.847816,69.719116,-1.539584,0.522552,0.647405,-13.929799,-1.929893,9.566550
703,888735395,140.716080,-66.902786,69.420761,-0.924213,0.404961,0.309908,-19.592773,-2.958105,7.333574
704,888752062,140.454681,-66.906342,69.183960,-0.310407,0.433657,-0.101411,-27.354822,-4.435325,4.234617
705,888768729,140.062134,-66.856422,69.043724,0.041603,0.456119,-0.336888,-29.899607,-5.474950,0.419403
706,888785396,139.617950,-66.769890,68.938141,0.425190,0.041325,-0.239800,-31.087664,-6.635890,-1.646646
707,888802063,139.193420,-66.680771,68.830070,0.702428,-0.370364,-0.137059,-30.039801,-6.787119,-1.737085
708,888818730,138.802643,-66.622124,68.794670,0.683111,-0.462493,-0.107021,-24.002234,-4.270862,-1.875942
709,888835397,138.466904,-66.605293,68.824295,0.595952,-0.284119,-0.194596,-17.120661,-1.354337,-1.392884
710,888852064,138.177155,-66.608070,68.903671,0.706616,-0.001060,-0.341447,-11.616876,0.318257,-1.496154
711,888868731,137.963348,-66.614166,69.040253,0.649810,0.274570,-0.456605,-3.912942,1.381389,-2.364334
712,888885398,137.837387,-66.619576,69.218277,0.576055,0.220956,-0.378547,3.643247,2.013575,-3.117373
713,888902065,137.754669,-66.630913,69.431931,0.614494,-0.071994,-0.190418,8.204896,2.846782,-3.499848
714,888918732,137.661804,-66.648819,69.707565,0.583675,0.093295,-0.075867,11.007083,4.133578,-4.312041
715,888935399,137.505432,-66.667419,70.062241,0.367674,0.290317,0.259116,11.556210,5.433732,-5.655532
716,888952066,137.358292,-66.685921,70.511513,0.201424,0.708017,0.280660,17.329699,6.955592,-7.293495
717,888968733,137.213547,-66.700279,71.034256,0.175051,1.011508,0.238070,21.519369,7.967878,-8.716609
718,888985400,137.109726,-66.708862,71.558311,-0.085471,0.945954,0.456215,24.054132,7.744167,-8.956336
719,889002067,137.105209,-66.714531,72.026108,-0.238589,0.737692,0.760700,26.910782,6.711078,-8.089357
720,889018734,137.117249,-66.716370,72.436264,-0.383275,0.552491,0.877061,24.732380,5.608011,-7.247873
721,889035401,137.061874,-66.687798,72.807030,-0.758875,0.838578,0.837337,18.508728,3.641702,-7.806800
722,889052068,136.951385,-66.594185,73.149605,-1.035589,1.427376,0.644684,13.638859,0.356779,-9.992101
723,889068735,136.877731,-66.423264,73.416489,-0.904484,1.373139,0.450908,11.665413,-4.224602,-11.876878
724,889085402,136.911194,-66.165520,73.604057,-0.650921,1.137096,0.458645,13.707499,-9.292264,-14.088046
725,889102069,136.892624,-65.821106,73.750099,-0.730272,0.762889,0.708833,8.280160,-13.747731,-16.943552
726,889118736,136.757828,-65.397324,73.889000,-0.940669,0.582933,0.841112,0.891689,-17.282673,-20.132734
727,889135403,136.515137,-64.892334,74.036461,-0.871449,0.753054,0.654459,-5.141294,-20.567751,-23.739447
728,889152070,136.209045,-64.254013,74.237495,-0.694093,1.475925,0.070162,-6.085765,-25.233669,-30.413317
729,889168737,135.935120,-63.496445,74.509697,-0.370481,1.448720,-0.681470,-0.386614,-28.841003,-36.955555
730,889185404,135.595291,-62.641293,74.824829,0.352996,0.457172,-0.717713,-2.149247,-31.884102,-42.175861
731,889202071,135.049332,-61.742641,75.226410,0.394081,-0.427768,-0.181090,-10.061295,-31.535944,-46.152573
732,889218738,134.292526,-60.845921,75.727104,-0.201558,-0.626899,0.266514,-17.675426,-28.661102,-48.648911
733,889235405,133.416702,-59.923080,76.271652,-0.468179,0.072485,0.104162,-22.756187,-27.811462,-51.355019
734,889252072,132.594620,-58.960011,76.774055,-0.714671,0.695917,-0.326644,-21.985506,-29.296017,-52.951023
735,889268739,131.945251,-57.940399,77.159912,-0.336598,0.561364,-0.596205,-17.853796,-33.277611,-53.661709
736,889285406,131.452805,-56.851120,77.457764,0.012051,0.584553,-0.369914,-13.109767,-37.378468,-55.452232
737,889302073,131.130707,-55.714077,77.663841,-0.146905,0.486118,0.580127,-7.665948,-40.953533,-56.036285
738,889318740,131.000488,-54.541412,77.770813,-0.442195,0.606144,1.237725,-1.172660,-44.548473,-55.709583
739,889335407,131.146881,-53.350555,77.849419,-0.901204,1.275966,1.136732,13.966212,-45.948280,-55.937233
740,889352074,131.633835,-52.147907,77.907928,-0.717397,1.130189,1.016838,33.375648,-47.212463,-55.796211
741,889368741,132.445236,-50.908325,77.967834,-0.513359,1.112823,1.297715,52.862865,-49.243675,-56.996815
742,889385408,133.552094,-49.653408,78.000000,-0.006635,0.014667,2.175521,69.254700,-51.554100,-56.174644
743,889402075,134.856888,-48.405212,78.037682,0.054180,-0.166676,2.739938,81.346191,-52.266594,-54.978714
744,889418742,136.564423,-47.163345,78.051285,-0.862379,0.217697,2.911427,104.410683,-54.070164,-52.681122
745,889435409,138.726212,-45.903065,77.973000,-0.819804,0.364068,2.329693,127.643120,-59.181622,-48.810833
746,889452076,141.144028,-44.574566,77.831474,-0.429669,1.088292,1.410411,140.380569,-65.981865,-46.983150
747,889468743,143.669083,-43.199398,77.641754,-0.288366,0.720092,1.004418,144.949722,-71.523308,-44.088528
748,889485410,145.993454,-41.796818,77.489548,-0.056348,0.348182,1.368056,134.628006,-73.819351,-43.217579
749,889502077,148.053146,-40.445198,77.491615,-0.363691,0.326126,1.550540,125.002434,-69.133873,-44.467793
750,889518744,149.739532,-39.093891,77.760178,-0.309809,0.675859,0.747241,112.822983,-64.185616,-52.726925
751,889535411,150.989288,-37.547325,78.278732,-0.413717,1.780654,-1.783799,95.609459,-69.752007,-67.337814
752,889552078,151.824509,-35.924095,79.007500,0.231462,0.832840,-2.495925,77.596191,-69.922997,-77.613205
753,889568745,151.922287,-34.225834,80.049858,0.969553,0.747441,-1.973620,43.143623,-66.915649,-93.403717
754,889585412,151.292999,-32.518608,81.411919,0.855859,0.389966,-0.593489,8.544251,-58.847160,-108.969849
755,889602079,150.148300,-30.792826,82.956940,0.631394,0.103598,0.838930,-18.667660,-52.914906,-119.693481
756,889618746,148.867996,-28.907963,84.602959,-0.601211,1.083191,-0.583939,-26.285391,-55.174068,-131.418579
757,889635413,147.742920,-26.794174,86.324265,-1.011238,1.360962,-2.701758,-17.882822,-61.132229,-144.546066
758,889652080,146.695801,-24.454788,88.096535,-0.262288,0.540689,-2.367034,-15.461117,-67.295807,-156.831406
759,889668747,146.130554,-21.921732,89.916122,-1.553756,0.148471,-0.629332,10.450289,-72.292358,-167.901627
760,889685414,146.011887,-19.352488,91.846474,0.648754,-1.023329,1.212223,35.071732,-68.605782,-176.205078
761,889702081,146.016022,-16.775478,94.122993,0.942633,-1.482722,0.369954,43.976147,-56.812538,-194.317917
762,889718748,146.477844,-14.268468,96.798050,-0.087993,-2.502607,-0.297720,72.043617,-40.320911,-212.369202
763,889735415,147.716202,-11.836254,99.749466,0.149389,-4.064932,-0.390632,115.662315,-29.987875,-224.308899
764,889752082,149.779388,-9.595199,102.880142,0.647968,-5.193955,-0.956314,160.071548,-20.351421,-227.741318
765,889768749,152.647156,-7.836029,106.008842,1.779108,-5.655249,-0.027567,201.856949,-4.296879,-213.640350
766,889785416,155.808609,-6.729342,108.984352,3.155361,-4.442515,-0.961638,213.675720,16.070175,-188.518387
767,889802083,158.234451,-6.034060,111.720657,3.117070,-3.016890,-2.343709,165.185730,24.172640,-166.638489
768,889818750,160.048553,-5.495517,113.903862,1.519512,-1.661641,-0.701031,123.417175,15.106918,-133.409500
769,889835417,161.651184,-5.000992,115.300400,1.562011,-0.068179,-1.135440,105.249222,-1.753934,-88.657349
770,889852084,162.657196,-4.551016,115.925438,1.010500,0.157169,-2.570022,64.923691,-15.340214,-43.944965
771,889868751,163.040985,-4.145946,115.993004,0.396056,-0.475871,-2.759467,24.780336,-23.123886,-11.122644
772,889885418,162.641846,-3.793911,115.890648,0.286617,-0.479117,-2.500300,-22.925680,-23.078485,-0.471391
773,889902085,161.762985,-3.546325,115.794258,-0.233605,-0.278937,0.013467,-51.653515,-16.992897,0.858643
774,889918752,160.746841,-3.382973,115.746803,0.484027,0.148442,0.754679,-59.694565,-11.279390,-0.554407
775,889935419,159.811081,-3.255217,115.756912,0.021136,-0.191099,1.309319,-54.661221,-8.094085,-3.252605
776,889952086,159.157730,-3.078374,115.790779,-0.266221,-0.546440,0.798626,-37.640697,-10.307106,-5.716094
777,889968753,158.660614,-2.893128,115.889091,-0.535140,-0.716949,0.157341,-28.074457,-9.330482,-9.591974
778,889985420,158.252197,-2.736732,115.998154,-0.515160,-0.270534,0.298688,-22.743233,-7.404828,-9.620165
779,890002087,158.001328,-2.626160,116.136192,-0.540810,-0.121766,0.518854,-13.228050,-4.151477,-10.244898
780,890018754,157.950043,-2.577516,116.263138,-0.553758,-0.065726,0.770449,-1.296733,-0.928243,-8.249314
781,890035421,158.126984,-2.564040,116.330963,-0.294670,-0.075361,0.488815,12.230154,-0.307058,-4.172887
782,890052088,158.427856,-2.577865,116.344925,-0.476087,-0.206844,0.522970,19.519279,0.003157,-0.569461
783,890068755,158.758759,-2.585296,116.330460,0.011007,-0.236302,0.262061,21.242035,-0.980366,0.875117
784,890085422,158.959808,-2.608703,116.341499,0.305486,-0.161832,0.327020,13.519384,0.471703,-0.209717
785,890102089,159.000092,-2.637723,116.379936,0.242742,-0.306623,0.340155,3.949472,1.375716,-1.621540
786,890118756,158.894180,-2.676661,116.424828,0.124667,-0.214991,0.394623,-4.802881,2.073521,-1.767187
787,890135423,158.851059,-2.722802,116.435341,-0.067124,-0.183122,0.282650,-1.128752,1.739506,0.309907
788,890152090,158.839172,-2.781841,116.421776,-0.297075,-0.194622,0.015146,0.674222,1.938862,1.941308
789,890168757,158.763474,-2.828613,116.399727,-0.110020,-0.291812,-0.179874,-3.182276,1.069055,2.147311
790,890185424,158.627258,-2.843063,116.391121,0.231918,-0.133352,-0.116720,-6.773984,-0.448312,0.695212
791,890202091,158.335495,-2.861258,116.420372,0.033221,-0.084238,-0.094594,-15.995067,0.589509,-1.326009
792,890218758,157.853241,-2.896351,116.479858,-0.241101,-0.041545,0.241453,-27.331001,2.214935,-2.615525
793,890235425,157.384613,-2.955147,116.521851,-0.119174,-0.041748,0.630293,-26.566187,3.152503,-1.079053
794,890252092,157.119247,-3.050407,116.521210,-0.102155,-0.058440,0.567327,-14.501716,4.188121,2.150168
795,890268759,157.064072,-3.182896,116.470161,0.136451,0.051479,0.327010,-2.055138,5.064150,5.817830
796,890285426,157.057602,-3.369317,116.377411,0.272649,0.082672,0.125338,0.716970,7.068731,9.379086
797,890302093,156.871201,-3.598810,116.220352,0.793155,0.391468,0.261228,-10.333518,7.924469,13.949736
798,890318760,156.373520,-3.878947,116.007271,0.462446,0.103797,-0.171251,-29.266264,9.300249,18.283907
799,890335427,155.731262,-4.119661,115.703461,-0.188587,-0.439216,-0.224362,-38.375477,4.752424,22.388948
800,890352094,155.033066,-4.346191,115.285370,-0.117245,-0.375940,0.131747,-42.314327,0.872114,28.310064
801,890368761,154.273804,-4.614684,114.739037,0.344405,-0.201929,0.060246,-46.689133,-0.491270,36.332825
802,890385428,153.162766,-5.008718,114.048500,0.964711,0.053600,0.146530,-68.708832,1.856870,47.395149
803,890402095,151.292374,-5.531878,113.278267,1.225981,0.018774,-0.088642,-115.032295,5.270186,55.255219
804,890418762,149.155685,-6.202497,112.399574,-0.871510,-1.140447,-0.664157,-132.148392,7.824840,65.414703
805,890435429,147.608536,-6.962255,111.361877,-1.652663,-1.493623,-0.603265,-98.530121,5.344607,76.473381
806,890452096,146.366760,-7.845121,110.190178,0.204986,-0.921595,0.450909,-82.142906,5.387244,87.230278
807,890468763,145.305481,-8.929222,109.034447,0.265359,-1.340236,1.000846,-72.369980,14.251354,93.200218
808,890485430,144.522095,-10.165466,107.891556,0.228986,-1.590973,1.068968,-56.957481,20.789066,97.878838
809,890502097,143.775955,-11.376123,106.730843,0.703129,-1.284791,1.129290,-56.367210,17.772900,97.915009
810,890518764,143.143494,-12.574418,105.588623,0.130431,-1.268405,0.814086,-50.752232,16.823112,96.593925
811,890535431,142.583649,-13.785184,104.445717,0.456905,-1.249133,1.315726,-47.812935,16.579578,97.014900
812,890552098,142.059784,-15.019038,103.364601,0.259710,-1.185693,0.418145,-46.149651,19.177755,94.901337
813,890568765,141.699173,-16.222448,102.344955,-0.320757,-1.087358,-0.496254,-36.695862,19.422762,90.857414
814,890585432,141.410980,-17.404423,101.336906,0.520561,-1.124708,-0.351038,-33.374557,18.540079,89.373901
815,890602099,141.078400,-18.604052,100.306137,1.385706,-1.660269,-0.084390,-37.660900,18.304935,90.870850
816,890618766,140.872330,-19.860401,99.240578,0.836332,-2.149967,-0.087514,-32.003960,19.563210,94.299896
817,890635433,140.776627,-21.194675,98.102402,1.072425,-2.391301,-0.422575,-28.269169,20.675795,100.101875
818,890652100,140.606354,-22.631819,96.911674,1.129929,-2.394370,-1.117453,-35.456894,23.749590,105.878494
819,890668767,140.370224,-24.115078,95.703278,0.830487,-2.112184,-2.118721,-41.506710,25.342848,107.946457
820,890685434,139.981079,-25.590305,94.444069,0.984213,-1.702317,-2.373132,-53.669476,23.111519,109.322525
821,890702101,139.510910,-27.013277,93.098892,0.919644,-1.485677,-1.574899,-62.535069,17.446980,110.381241
822,890718768,138.932556,-28.372715,91.669388,1.620646,-1.715563,-0.366530,-73.116035,11.208428,110.779205
823,890735435,138.216537,-29.735106,90.263870,1.205255,-1.770239,-0.787505,-82.463860,11.559774,109.374870
824,890752102,137.552414,-31.106833,88.921776,0.200919,-1.179582,-1.432666,-79.160851,13.532623,106.724312
825,890768769,137.010147,-32.466927,87.571899,0.674127,-1.013044,-1.437842,-73.742439,12.296175,105.970459
826,890785436,136.394287,-33.850155,86.168457,1.858318,-1.466608,-0.494321,-81.537735,11.108575,108.249352
827,890802103,135.377304,-35.317162,84.720512,2.923658,-2.034288,-0.297068,-108.855232,12.446288,112.671577
828,890818770,133.933029,-36.906696,83.392662,0.854641,-1.185433,-0.817810,-132.116745,20.281462,113.146080
829,890835437,132.360229,-38.531425,82.140572,0.268030,-0.251445,-1.219526,-138.832031,22.339869,111.842331
830,890852104,131.251984,-40.126175,80.821999,-0.264298,0.969952,-2.003667,-115.137009,17.186825,112.196617
831,890868771,130.740952,-41.825127,79.509041,1.069228,0.891789,-1.067225,-80.827820,20.993904,116.024178
832,890885438,130.556458,-43.692360,78.274994,1.229939,0.473678,0.254261,-59.841309,30.734270,120.481010
833,890902105,130.699570,-45.758549,77.236275,0.291384,0.797613,0.249514,-33.781319,46.103172,122.992599
834,890918772,131.163513,-47.946934,76.382812,-0.121504,1.240915,-0.224281,-8.035891,58.546257,122.210388
835,890935439,131.957916,-50.176434,75.598206,-0.148872,1.416052,-0.344466,13.586231,64.639862,120.619637
836,890952106,133.370468,-52.475533,74.880432,-1.101454,1.839869,0.169580,52.600525,72.664276,119.733788
837,890968773,135.351761,-54.843159,74.204750,-0.923582,1.482414,0.581714,87.680763,81.116745,118.410400
838,890985440,137.427795,-57.304100,73.615547,-0.038179,0.444259,1.004580,96.679436,92.274193,116.174950
839,891002107,138.702805,-59.794727,73.319405,0.034660,0.648375,0.492056,62.800552,103.942818,106.802933
840,891018774,139.096512,-62.298882,73.397240,-1.309325,1.468316,-0.193365,29.170790,113.677673,97.103577
841,891035441,138.764191,-64.778030,73.918556,-1.342320,1.802528,-0.649105,9.522605,120.267937,87.243698
842,891052108,137.428635,-67.156067,75.027840,-0.485564,1.853627,-1.176359,-17.870724,123.258034,75.127472
843,891068775,134.691147,-69.406471,77.015213,-0.492866,2.859922,-1.413463,-51.997166,126.795029,61.918308
844,891085442,131.187317,-71.491623,79.862259,-0.583450,3.292382,-1.091620,-47.771091,126.001541,52.615879
845,891102109,127.104988,-73.302803,83.484268,-0.291644,3.407229,-0.490435,-36.316158,118.475639,42.729820
846,891118776,122.603027,-74.820175,87.852783,-0.496140,3.518359,0.290312,-16.620373,109.981346,33.499249
847,891135443,117.502121,-76.086433,92.925964,0.140787,2.002535,0.992182,-9.947630,103.091347,27.364271
848,891152110,111.713585,-77.062149,98.189209,1.085415,-0.389002,1.399678,-38.691395,89.914719,22.592155
849,891168777,105.085670,-77.765991,103.521835,1.090369,-1.389009,1.829918,-83.941582,78.367737,17.970488
850,891185444,98.231102,-78.126411,109.004288,-1.407129,2.049546,1.859226,-88.147804,70.534370,7.236766
851,891202111,92.395676,-78.314468,113.513626,-0.639364,2.095685,2.351023,-83.818878,54.944939,6.049633
852,891218778,87.419228,-78.288208,116.830139,-0.164044,1.587910,2.304621,-102.304695,39.257565,-1.578655
853,891235445,83.500450,-78.101639,118.889114,-1.254041,2.099108,2.209111,-112.765266,24.990383,-9.239758
854,891252112,81.046059,-77.845825,119.624710,-2.091789,2.099720,1.975978,-102.671028,10.084612,-14.065072
855,891268779,80.127930,-77.659386,119.176910,-2.726721,1.443699,1.799507,-79.914612,-4.879562,-12.077691
856,891285446,80.440773,-77.577538,117.819000,-2.249418,0.837134,1.718375,-59.386322,-17.466719,-7.910514
857,891302113,81.577202,-77.530304,116.265343,-3.014206,1.296592,1.444788,-21.417461,-20.467150,-6.069116
858,891318780,83.714706,-77.571877,114.196930,-2.086190,0.699005,1.522934,8.492320,-27.905468,-1.095113
859,891335447,86.640755,-77.623451,111.572166,-1.735639,1.538407,1.171787,23.174805,-35.008453,0.087935
860,891352114,90.047165,-77.611244,108.621193,-1.042536,1.485053,1.069913,32.866432,-38.969322,-1.990112
861,891368781,93.600105,-77.543503,105.544632,-0.673539,1.309183,0.823591,34.323444,-40.855930,-2.966480
862,891385448,97.326942,-77.496574,102.329147,-0.359650,0.926205,0.704255,36.652142,-42.807205,0.991050
863,891402115,100.980171,-77.446861,99.159325,0.186246,0.303391,0.491581,34.952381,-42.243954,3.436883
864,891418782,104.179321,-77.353973,96.371513,0.267704,0.387519,0.280560,30.121267,-37.867397,2.328156
865,891435449,106.800514,-77.232628,94.078011,0.254333,0.087885,0.093361,24.446714,-32.160671,0.885378
866,891452116,109.040421,-77.116913,92.113976,0.055594,0.229628,-0.041033,20.905037,-28.074606,1.262308
867,891468783,110.891357,-76.996986,90.504982,0.033057,0.230227,-0.120813,18.383261,-23.831797,0.441404
868,891485450,112.416924,-76.887772,89.138092,0.649086,-0.005509,-0.314397,13.063484,-20.691353,0.561745
869,891502117,113.594231,-76.766846,87.964882,0.853793,-0.055459,-0.289693,3.515405,-18.656290,-0.588786
870,891518784,114.441551,-76.643059,87.024506,0.860697,0.073267,-0.166794,-2.659689,-15.932702,-1.678005
871,891535451,115.153358,-76.521629,86.201988,0.279833,-0.012633,-0.115808,-3.882081,-14.514533,-1.985511
872,891552118,115.692345,-76.398544,85.517418,0.144397,0.108485,0.031654,-6.187277,-12.917466,-2.709838
873,891568785,116.091019,-76.260857,84.907585,0.064040,0.363487,-0.060157,-10.218593,-12.450947,-3.829319
874,891585452,116.403572,-76.102249,84.363319,0.018388,0.457107,-0.024574,-11.532282,-12.268891,-5.264235
875,891602119,116.577095,-75.892822,83.931488,-0.039189,0.762241,0.049056,-13.317714,-12.280896,-8.623423
876,891618786,116.616425,-75.644958,83.607857,-0.098921,0.688200,0.136594,-15.060320,-11.992105,-11.333858
877,891635453,116.552696,-75.354156,83.344666,-0.310611,0.552608,0.221361,-17.695072,-12.410841,-14.015301
878,891652120,116.512001,-75.025871,83.106186,-0.681360,0.853233,0.336765,-14.859662,-13.136847,-16.174698
879,891668787,116.619377,-74.672371,82.806511,-0.825529,0.955639,0.362275,-9.499540,-14.752049,-17.057953
880,891685454,116.839432,-74.281624,82.443237,-0.767957,1.047469,0.449907,-6.387233,-16.815941,-18.510481
881,891702121,117.014389,-73.843018,82.098961,-0.569773,1.223252,0.508486,-7.955624,-18.033676,-21.093712
882,891718788,117.021538,-73.337021,81.820038,-0.439750,1.357325,0.606938,-14.214236,-19.064201,-25.105967
883,891735455,116.909088,-72.757324,81.510139,-0.573496,1.499622,0.746647,-23.133324,-21.663465,-28.750162
884,891752122,116.982826,-72.113998,81.121239,-1.240559,1.933808,0.752124,-16.414671,-24.827909,-31.437620
885,891768789,117.293335,-71.425079,80.669365,-1.136026,1.642323,0.816343,-5.716691,-27.460545,-33.146397
886,891785456,117.648956,-70.661949,80.179649,-0.892956,1.549819,0.805847,-5.055898,-30.646240,-36.457870
887,891802123,118.061638,-69.803780,79.659645,-0.936583,1.542640,0.791958,-3.202990,-34.442528,-40.840298
888,891818790,118.550423,-68.837494,79.135994,-0.999421,1.380765,0.690454,1.324110,-38.312603,-46.035126
889,891835457,119.182716,-67.749290,78.594231,-0.924890,1.427574,0.541467,9.124384,-43.103016,-51.635113
890,891852124,119.966690,-66.556953,78.081741,-0.889430,1.425676,0.322824,20.082834,-46.744682,-56.591942
891,891868791,120.805969,-65.278008,77.618111,-0.550353,1.051509,0.438167,26.343161,-49.661171,-60.728809
892,891885458,121.732948,-63.895512,77.213791,-0.723572,1.171287,0.521470,35.080292,-53.010784,-65.773132
893,891902125,122.729912,-62.409306,76.802994,-0.299052,0.712903,0.337259,39.196587,-58.033714,-69.776154
894,891918792,123.825249,-60.816147,76.407661,-0.423208,0.725500,0.202315,46.218922,-62.940018,-74.010773
895,891935459,124.983627,-59.146732,75.974045,0.126501,-0.376208,0.565316,48.338631,-68.399994,-75.574234
896,891952126,126.026031,-57.412113,75.490433,0.329200,-1.014614,0.728443,39.220322,-73.931503,-76.144760
897,891968793,127.238487,-55.686485,75.036987,-0.670774,-0.548960,0.960621,51.401115,-74.884293,-74.410660
898,891985460,128.811142,-54.010677,74.560631,-1.367479,-1.004688,1.377630,72.339340,-75.972298,-69.338318
899,892002127,130.763611,-52.420895,74.000946,-1.519366,-0.794554,2.296006,91.597923,-77.564568,-60.696457
900,892018794,132.995575,-50.876457,73.366196,-0.507929,-0.267049,2.009990,105.382675,-80.526031,-53.478508
901,892035461,135.330963,-49.356735,72.742081,0.410637,-0.314463,1.412540,112.720551,-81.823357,-48.940182
902,892052128,137.646530,-47.873032,72.229118,0.627823,-0.270708,1.362706,117.170998,-79.654381,-46.784855
903,892068795,139.994614,-46.416481,71.837601,0.759024,0.034056,1.296398,124.993011,-77.384720,-45.762249
904,892085462,142.266663,-44.968895,71.588264,0.850933,0.165287,1.397134,126.945847,-75.278625,-46.608109
905,892102129,144.432816,-43.553810,71.490547,0.869517,0.203925,1.557270,127.211357,-71.731812,-47.550083
906,892118796,146.548386,-42.130882,71.530251,0.363797,0.340815,1.049533,129.885452,-70.480621,-50.033459
907,892135463,148.717255,-40.677101,71.707008,0.273506,0.793260,-0.081282,138.477997,-70.542076,-53.637405
908,892152130,150.862671,-39.144772,72.043442,0.254202,1.239515,-0.991043,143.006027,-72.798019,-59.862080
909,892168797,152.874969,-37.557880,72.534187,0.465403,0.975925,-1.118733,140.335861,-74.228203,-65.468040
910,892185464,154.641373,-35.923412,73.218239,0.399845,0.974716,-1.071546,131.868988,-74.574867,-73.072670
911,892202131,156.191498,-34.271744,74.086334,0.367881,0.628868,-0.410736,124.287537,-73.556114,-80.183029
912,892218798,157.534836,-32.499710,75.203262,-0.092912,1.282890,-1.643169,118.817398,-76.953918,-93.436302
913,892235465,158.936584,-30.553011,76.650940,-2.298350,1.942421,-3.444778,130.857712,-82.204681,-112.262131
914,892252132,160.408203,-28.485727,78.335785,-1.704438,-0.205357,-3.677763,139.431992,-86.943939,-125.775833
915,892268799,161.602661,-26.220686,80.240234,-1.354170,-0.130172,-2.589976,125.495216,-96.656479,-140.392960
916,892285466,162.787292,-23.838760,82.338524,-0.976213,-0.765941,-0.618587,125.659187,-102.379776,-152.490234
917,892302133,163.775986,-21.478575,84.715271,0.001875,-1.636046,0.033747,115.584641,-98.951607,-166.958176
918,892318800,164.605301,-19.287830,87.468971,-1.010967,-2.359922,-0.349314,108.635712,-85.456230,-184.994354
919,892335467,165.857101,-17.331099,90.542595,-1.598264,-3.104229,-0.805251,134.364456,-70.064003,-199.386383
920,892352134,167.652679,-15.571012,93.785713,-1.367079,-4.215901,-0.590737,164.151550,-61.199341,-206.016129
921,892368801,169.847595,-13.998005,97.055893,0.305029,-4.903966,-0.005144,183.065018,-56.709660,-204.634247
922,892385468,172.154907,-12.710289,100.475822,0.961054,-5.462318,-0.604470,187.133286,-46.222519,-209.422852
923,892402135,173.879013,-11.826146,103.963379,3.353169,-4.572311,-1.178736,149.227798,-28.914951,-209.540710
924,892418802,173.994034,-11.099113,107.495552,3.812508,-3.285358,-2.551851,50.381321,-22.535713,-211.258102
925,892435469,172.761536,-10.269448,110.827965,3.583671,-3.109902,-2.198109,-35.478130,-27.866638,-201.009888
926,892452136,170.839935,-9.346674,113.789322,3.796362,-1.267975,-0.941556,-83.607033,-30.890186,-181.292587
927,892468803,168.691574,-8.429652,116.113052,2.589631,-0.321876,0.974357,-105.931572,-30.723270,-145.426193
928,892485470,166.918884,-7.601202,117.615547,1.382544,0.580350,2.235388,-92.365463,-30.776789,-97.845657
929,892502137,165.838135,-6.973537,118.405266,0.408897,0.636388,1.311799,-57.408566,-26.581387,-54.632744
930,892518804,165.516312,-6.541878,118.680084,0.227951,-0.212396,-1.127838,-15.941440,-22.095253,-22.357988
931,892535471,165.520828,-6.239653,118.636398,1.115766,-0.121646,-2.014931,1.405902,-19.258343,-2.096671
932,892552138,165.544495,-6.017080,118.489929,0.936421,0.035230,-1.383915,1.912931,-16.161295,5.044407
933,892568805,165.474548,-5.856691,118.376785,0.331070,0.002334,0.505020,-3.463697,-12.051616,4.049786
934,892585472,165.385086,-5.766561,118.320801,0.164962,-0.027700,1.097745,-4.271418,-7.117297,1.789246
935,892602139,165.319717,-5.699193,118.284874,-0.342223,-0.476891,0.957066,-2.700334,-5.497076,0.973507
936,892618806,165.290298,-5.618689,118.250519,-0.124689,-0.581091,0.370711,-0.534909,-6.234350,0.676758
937,892635473,165.117523,-5.524568,118.228661,0.129234,-0.363698,0.309881,-9.061368,-6.832870,-0.263235
938,892652140,164.800659,-5.426908,118.260818,-0.000811,-0.120552,0.454868,-17.394348,-6.198448,-3.459025
939,892668807,164.614822,-5.368235,118.299767,-0.189075,0.094661,0.842209,-9.499511,-3.819751,-3.255760
940,892685474,164.615723,-5.359081,118.315376,-0.251618,-0.002280,0.822890,1.572383,-1.320949,-1.125512
941,892702141,164.773026,-5.395459,118.293861,-0.282897,0.017080,0.634668,10.746114,0.727113,1.732245
942,892718808,165.036606,-5.504877,118.221329,-0.243474,-0.072730,0.396159,16.827917,4.169233,5.812610
943,892735475,165.181824,-5.649262,118.100845,-0.127746,-0.006242,-0.115559,9.437078,5.483639,9.095110
944,892752142,165.196182,-5.788501,117.952850,-0.105414,-0.060661,-0.152280,1.403621,4.777840,10.595984
945,892768809,165.110687,-5.907332,117.777542,-0.191365,0.041098,0.170824,-4.776207,3.171027,11.855709
946,892785476,164.892197,-6.042582,117.563797,0.074944,0.288897,1.044314,-13.017878,3.496094,14.340513
947,892802143,164.373749,-6.254971,117.324852,0.481468,0.371637,0.969831,-31.216042,7.467500,17.041533
948,892818810,163.653244,-6.532042,117.044403,0.202382,0.051293,0.445126,-43.675507,10.332348,20.576338
949,892835477,162.945618,-6.784739,116.720627,-0.634516,-0.560313,0.254117,-43.279118,7.934762,22.756870
950,892852144,162.534195,-7.026098,116.310722,-0.455621,-0.384451,0.761176,-26.216372,5.543929,27.529703
951,892868811,162.151718,-7.336379,115.784729,1.003911,0.347541,1.297091,-25.469585,7.200081,35.402710
952,892885478,161.453384,-7.795058,115.169037,0.501439,0.338090,1.117870,-45.335762,13.668408,43.299129
953,892902145,160.763947,-8.375978,114.433235,-1.116666,-0.316411,1.013374,-46.143459,17.783819,52.560719
954,892918812,160.189041,-9.030906,113.471329,-0.345500,-0.348735,0.635998,-41.800545,16.929373,66.814919
955,892935479,159.892044,-9.749098,112.256821,-0.218328,-0.863171,0.507177,-28.286367,14.917405,82.204300
956,892952146,159.886475,-10.624975,110.809975,0.883647,-1.199890,0.636458,-14.266904,18.929651,98.215935
957,892968813,159.770798,-11.693691,109.243553,1.665930,-1.660904,0.532825,-23.709192,27.359114,108.580925
958,892985480,159.478134,-12.941311,107.582451,1.735320,-2.243902,-0.013960,-37.395145,35.244522,117.264885
959,893002147,158.972549,-14.285803,105.831223,1.307158,-2.394729,-0.720076,-53.634705,38.185776,124.026527
960,893018814,158.255615,-15.663026,103.993416,1.231541,-2.610754,-1.144341,-70.069687,37.096233,129.255524
961,893035481,157.321991,-17.048172,102.092880,1.068007,-2.585462,-1.366000,-86.687698,34.585876,132.661469
962,893052148,156.431763,-18.417168,100.116592,1.073876,-2.693184,-1.527454,-88.082108,30.207468,136.071594
963,893068815,156.060287,-19.739035,98.041946,0.956716,-2.949162,-1.200826,-61.534328,24.231016,139.586288
964,893085482,156.197159,-20.989859,95.893524,1.338532,-2.300394,-0.721766,-35.198410,18.768667,140.833954
965,893102149,156.578781,-22.082867,93.653961,1.497409,-2.019251,-0.949880,-24.983181,9.074526,140.764771
966,893118816,157.316757,-22.956141,91.304283,0.522755,-1.220089,-1.207405,-8.262015,-3.722604,140.318604
967,893135483,158.676163,-23.588484,88.878052,0.644172,-0.560097,-0.865399,25.498222,-15.865522,138.186310
968,893152150,160.624023,-23.971470,86.362907,0.695724,-0.002077,-0.706089,57.478268,-27.410467,137.443893
969,893168817,163.353424,-24.174973,83.754829,0.818496,0.019210,0.316092,101.382759,-33.501499,139.638290
970,893185484,166.702087,-24.279707,81.037521,1.856873,-0.100166,0.741612,135.468491,-33.276791,145.238174
971,893202151,169.844498,-24.349577,78.308762,2.322937,-0.128431,0.689266,122.601212,-27.157593,146.917801
972,893218818,172.279861,-24.388330,75.662643,1.510069,0.017912,-0.289502,82.103836,-21.112818,143.206085
973,893235485,174.070389,-24.352087,73.131424,0.567293,0.052408,-1.132401,46.270763,-19.544418,137.083054
974,893252152,175.144043,-24.240799,70.751678,-0.312457,0.191236,-0.882743,7.191115,-19.827816,128.911652
975,893268819,175.522385,-24.190392,68.493713,-0.158135,0.178506,0.001284,-31.338701,-14.022054,122.877113
976,893285486,175.359619,-24.316917,66.353844,0.401283,-0.329774,0.846763,-60.971413,-2.700206,117.271904
977,893302153,174.899155,-24.678310,64.307045,0.763118,-0.778521,1.336446,-77.012352,11.147829,113.174065
978,893318820,174.312698,-25.296663,62.339684,0.162187,-0.532163,1.153514,-83.504250,25.905338,109.995995
979,893335487,173.825851,-26.128914,60.433460,-0.420836,-0.305682,0.774171,-77.285255,38.041576,107.644485
980,893352154,173.477707,-27.129646,58.540806,-0.039289,-0.243885,0.461068,-70.240204,47.468025,107.521950
981,893368821,173.351639,-28.345510,56.628880,0.052041,-0.089514,0.176533,-59.411652,59.835926,109.226913
982,893385488,173.485382,-29.806232,54.736938,-0.145306,0.039071,-0.155506,-45.597649,74.698349,108.595078
983,893402155,173.762253,-31.504644,52.889359,-0.189374,-0.001686,-0.629281,-38.369286,89.680748,106.085167
984,893418822,174.234711,-33.380146,51.083897,-0.516582,0.360863,-1.011032,-28.234221,101.345589,102.692513
985,893435489,175.204529,-35.392342,49.330765,-1.363210,1.056885,-1.585704,0.302644,111.217316,97.556824
986,893452156,177.030060,-37.480518,47.611820,-1.746868,1.863606,-2.010233,49.779594,118.368668,91.271561
987,893468823,179.298752,-39.582039,45.940205,-0.497454,1.463311,-1.926562,75.130211,122.496399,82.455292
988,893485490,-178.680954,-41.719955,44.330769,0.356005,0.980136,-1.008537,59.786011,127.646713,72.574364
989,893502157,-177.031631,-43.890301,42.733704,0.325330,0.712886,-0.478669,35.326405,131.730103,65.380547
990,893518824,-175.509125,-46.109821,41.198696,0.126524,0.987016,-0.611053,27.704586,136.092072,56.323357
991,893535491,-174.169113,-48.336231,39.732391,0.420717,1.481041,-1.067774,17.298004,137.379303,47.496212
992,893552158,-173.197586,-50.480679,38.262459,0.635126,1.744641,-0.810085,-7.209589,133.153625,42.882675
993,893568825,-172.609283,-52.480850,36.753139,0.423976,1.854924,-0.260726,-34.083206,125.003487,41.141708
994,893585492,-172.266327,-54.372971,35.261856,0.520241,1.654634,-0.244260,-49.816677,118.494003,37.912544
995,893602159,-172.248062,-56.237885,33.938000,0.640527,1.334388,-0.201941,-62.747673,115.894897,29.722780
996,893618826,-172.618698,-58.134953,32.843613,0.313320,0.922133,0.138007,-75.963776,116.442039,20.282192
997,893635493,-173.471664,-60.093971,32.011330,-0.212329,0.739096,0.838923,-92.573753,118.700371,11.208397
998,893652160,-174.765671,-62.111820,31.473236,-1.066834,1.218319,1.063626,-104.451988,120.951630,3.107952
999,893668827,-176.407425,-64.096436,31.344063,-1.668485,1.790463,0.860301,-103.961174,117.911308,-5.685350
1000,893685494,-178.038589,-65.907181,31.479147,-2.101944,1.867805,0.543649,-89.071320,107.266563,-8.716305
1001,893702161,-179.124771,-67.497726,31.636049,-1.934420,2.032813,0.787110,-55.090961,94.226479,-6.126534
1002,893718828,-179.576157,-68.854866,31.614418,-0.992464,1.191013,0.762714,-26.856747,80.339188,-0.499614
1003,893735495,-179.763184,-70.012283,31.463163,-0.212154,0.413168,1.134722,-18.300278,68.382233,2.723491
1004,893752162,-179.850769,-71.007698,31.222410,-0.102896,0.079336,1.709276,-17.451878,58.656422,4.551494
1005,893768829,-179.810272,-71.851379,30.812090,-0.539440,-0.029144,2.070959,-19.482996,49.555611,7.620899
1006,893785496,-179.665863,-72.546059,30.156261,-0.814999,0.264017,1.997427,-27.381126,40.658783,11.768980
1007,893802163,-179.627563,-73.085686,29.473236,-0.925276,1.285499,1.599731,-35.436169,31.373856,11.833620
1008,893818830,-179.778687,-73.409790,28.936838,-0.775118,2.121130,1.019699,-38.468060,18.416044,9.093883
1009,893835497,-179.951950,-73.459930,28.464199,-0.913611,2.733234,0.688550,-36.162823,1.948733,7.984766
1010,893852164,179.851624,-73.309540,28.086821,-1.124396,1.991485,0.890693,-32.075123,-10.107671,6.360447
1011,893868831,179.402634,-73.070000,27.914656,-1.894091,1.029539,1.398389,-35.422321,-15.474620,2.776950
1012,893885498,178.772202,-72.845444,27.946907,-2.258103,0.165141,1.687098,-34.571247,-14.538685,-0.909153
1013,893902165,177.984772,-72.662743,28.180502,-1.810562,-0.056497,1.464456,-32.457382,-11.907818,-4.597781
1014,893918832,176.965698,-72.495872,28.644808,-1.328460,0.607365,1.068225,-33.159351,-10.691967,-8.912067
1015,893935499,175.847153,-72.325485,29.256466,-1.045255,0.937415,0.705893,-30.725573,-10.564131,-11.854031
1016,893952166,174.858322,-72.148178,29.925505,-0.794268,0.886102,0.460138,-19.702486,-10.656981,-13.217874
1017,893968833,174.140305,-71.982391,30.562326,-0.133007,0.126419,0.297736,-5.329060,-9.823479,-12.821486
1018,893985500,173.554077,-71.840652,31.140995,0.284382,-0.581735,0.330304,-0.771135,-8.350195,-11.785604
1019,894002167,173.052292,-71.736382,31.678318,0.625615,-0.792484,0.292713,1.915658,-6.090486,-10.889322
1020,894018834,172.516251,-71.644417,32.240223,0.813347,-0.385126,0.061876,1.243465,-5.192222,-11.347609
1021,894035501,172.064499,-71.504150,32.772133,0.953984,0.538992,-0.443595,4.575193,-8.040575,-11.268993
1022,894052168,171.764252,-71.326103,33.219200,1.150376,0.539080,-0.703482,8.809439,-10.431998,-10.109009
1023,894068835,171.491592,-71.115852,33.600838,1.055931,0.018181,-0.500788,6.720671,-12.469874,-9.270615
1024,894085502,171.197784,-70.905296,33.947922,0.794225,-0.722573,-0.143175,3.464281,-12.538080,-8.737729
1025,894102169,170.824615,-70.731155,34.320919,0.504959,-0.767636,0.197062,0.152300,-10.242833,-9.029174
1026,894118836,170.418747,-70.598000,34.683918,0.445414,-0.445277,0.254689,-2.396812,-7.778568,-8.544797
1027,894135503,169.906754,-70.474495,35.084721,0.487697,0.134577,0.112543,-6.642901,-7.000045,-9.285275
1028,894152170,169.303909,-70.333519,35.563400,0.293603,0.897510,0.068187,-7.706279,-7.655962,-11.125385
1029,894168837,168.606155,-70.138351,36.138088,0.053245,1.253614,0.137876,-8.008154,-10.335045,-13.814112
1030,894185504,167.814819,-69.884117,36.815018,-0.426473,1.248716,0.294114,-7.910728,-13.174327,-16.838421
1031,894202171,166.864044,-69.584465,37.663013,-0.748042,1.185165,0.402726,-7.914102,-14.759500,-21.272840
1032,894218838,165.747269,-69.228813,38.690781,-0.758970,1.261685,0.414483,-7.882414,-16.675442,-26.267164
1033,894235505,164.438583,-68.764915,39.906830,-0.802845,1.376948,0.341918,-9.011239,-21.244970,-32.579102
1034,894252172,162.996887,-68.178337,41.309765,-1.010802,1.562345,0.150668,-6.803876,-26.199608,-39.672535
1035,894268839,161.572144,-67.458641,42.860283,-1.149813,2.132185,0.144963,2.057677,-31.524055,-46.761673
1036,894285506,160.248169,-66.622581,44.481998,-1.177924,2.409742,0.440779,11.545177,-36.064713,-52.445999
1037,894302173,159.002457,-65.676529,46.146244,-1.664068,2.179662,0.790901,17.971363,-40.231056,-57.795628
1038,894318840,157.913162,-64.631721,47.749756,-1.733607,1.593185,1.015919,23.325737,-44.542183,-60.813831
1039,894335507,156.973022,-63.529995,49.340923,-1.606474,1.252527,1.133065,30.833111,-46.114857,-64.098030
1040,894352174,156.031631,-62.387897,50.971977,-1.573193,1.030493,1.200177,32.053875,-46.178432,-68.334473
1041,894368841,155.097504,-61.172119,52.653599,-1.624180,1.414646,1.037601,34.221504,-47.747730,-73.825806
1042,894385508,154.400513,-59.873493,54.257530,-1.282348,1.304589,0.649730,43.317474,-51.345901,-76.290627
1043,894402175,153.881470,-58.475792,55.750774,-0.717692,0.633628,0.435381,47.147835,-56.514542,-78.116508
1044,894418842,153.423706,-57.017414,57.183231,-0.469249,-0.111990,0.657173,46.570961,-59.136204,-80.168312
1045,894435509,152.821457,-55.528915,58.664101,-0.737340,-0.450082,1.158724,39.114918,-58.434784,-84.608315
1046,894452176,152.308823,-54.004341,60.157589,-1.130056,0.223057,0.745660,43.784142,-58.447140,-88.252762
1047,894468843,151.923630,-52.394863,61.605453,-0.536631,0.877393,-0.369190,47.795475,-62.095928,-91.387482
1048,894485510,151.593201,-50.675209,63.016911,-0.258148,0.533239,-0.945211,47.824265,-67.052032,-95.458153
1049,894502177,151.367645,-48.837723,64.396828,-0.291300,0.157197,-0.485023,51.007145,-72.416916,-99.866844
1050,894518844,151.160400,-46.915520,65.791977,-0.680610,0.072830,0.228997,50.981518,-75.229073,-104.898224
1051,894535511,151.024796,-44.893879,67.223358,-0.752935,0.521280,-0.370590,54.880859,-78.388863,-111.177246
1052,894552178,151.098679,-42.755074,68.630043,-0.479666,0.463087,-1.541419,64.199203,-83.940758,-115.600105
1053,894568845,151.171326,-40.341747,69.972061,0.109999,0.807815,-2.340048,59.096203,-98.817955,-122.902122
1054,894585512,151.221985,-37.685188,71.234512,-0.411400,0.618090,-1.905425,52.048477,-112.427505,-128.589172
1055,894602179,151.211166,-34.865505,72.404762,-0.498535,0.293750,-0.273235,42.218781,-122.139755,-131.288757
1056,894618846,151.531479,-32.016449,73.595802,-1.230066,0.087376,1.652749,59.915985,-122.595589,-134.459305
1057,894635513,152.325150,-29.225168,74.982613,-1.620005,0.206052,2.354842,91.306992,-115.206116,-142.202927
1058,894652180,153.609726,-26.602179,76.619797,-1.257248,-0.025551,1.926827,124.353325,-101.867287,-149.058655
1059,894668847,155.326828,-24.139059,78.527122,-1.097903,-0.184868,1.484716,153.345535,-89.923920,-157.219559
1060,894685514,157.519958,-21.818193,80.632683,-0.946181,-0.601061,0.957418,182.180511,-82.252380,-162.509689
1061,894702181,160.006409,-19.524532,82.936401,-0.608594,-1.021615,-0.043656,199.246765,-82.583015,-170.595093
1062,894718848,162.434708,-17.264400,85.454781,0.643576,-2.466281,-0.160018,194.649841,-83.380714,-179.611710
1063,894735515,164.433685,-15.008368,88.211784,1.625313,-2.903289,-0.132609,167.189651,-85.583267,-191.075241
1064,894752182,165.769318,-12.717902,91.259140,2.581922,-3.258235,-1.098753,125.248032,-88.296112,-207.037140
1065,894768849,166.216263,-10.372482,94.729073,2.576238,-3.760051,-2.832360,69.819366,-88.273682,-232.109116
1066,894785516,165.602356,-7.943438,98.780693,3.526178,-5.168021,-4.303181,3.239367,-84.000145,-268.375854
1067,894802183,164.018234,-5.330719,103.326111,4.261828,-7.084880,-2.855501,-62.076481,-81.331528,-302.624176
1068,894818850,162.560455,-2.951406,108.045616,2.005250,-7.059865,2.701134,-65.562096,-56.509979,-311.658447
1069,894835517,161.628662,-1.133838,112.694260,2.787148,-5.146934,0.094404,-44.542027,-19.058754,-298.847443
1070,894852184,160.490601,0.392046,116.888092,3.546936,-2.063071,-1.665743,-65.231842,-5.901325,-267.794922
1071,894868851,159.957275,1.514250,119.579117,2.141313,3.824931,0.729130,-33.281189,-9.737552,-174.755829
1072,894885518,160.819366,2.126214,120.321037,-5.003470,1.394299,-0.973797,51.722168,-20.666151,-54.317101
1073,894902185,162.937698,2.678282,119.648346,-3.678358,-0.499360,-0.990760,130.185791,-45.060444,27.943649
1074,894918852,165.011948,3.083260,118.772827,4.116059,1.183578,-1.577929,128.471329,-38.881668,43.635998
1075,894935519,165.850800,3.141272,118.131622,7.290769,0.990739,-1.080638,53.819603,-14.066688,36.219471
1076,894952186,165.113678,3.140606,118.086418,3.996152,0.401640,-0.891267,-42.642193,-1.661494,2.554877
1077,894968853,163.216736,3.231880,118.593353,0.114481,0.303669,1.216702,-114.050819,2.005746,-30.782290
1078,894985520,161.129181,3.420734,119.243233,-1.308765,0.355844,2.190581,-126.059341,0.116948,-40.601009
1079,895002187,159.814468,3.642773,119.619102,-1.727007,0.413105,2.561680,-78.822037,-6.050315,-25.744078
1080,895018854,159.419861,3.770406,119.614532,-1.374302,-0.113736,1.368395,-22.215126,-8.298531,-2.483156
1081,895035521,159.686752,3.798921,119.375916,-0.316748,0.127332,0.792640,18.395096,-7.621150,12.709949
1082,895052188,160.303726,3.751692,119.102737,0.407582,0.311290,0.542933,39.531879,-3.959621,16.254572
1083,895068855,160.911362,3.711025,118.869446,0.252947,0.314418,0.679300,38.806667,-3.363211,13.901933
1084,895085522,161.271881,3.678499,118.724220,0.248583,0.243223,0.333174,23.632273,-2.002495,8.782352
1085,895102189,161.297577,3.692900,118.687622,0.089686,-0.234197,0.046020,3.124077,-2.551512,1.717210
1086,895118856,161.114151,3.731031,118.738129,0.106155,-0.158027,0.004180,-9.760824,-2.221057,-3.677294
1087,895135523,160.897659,3.766069,118.819038,-0.417823,-0.274933,-0.290272,-11.865039,-1.438628,-5.344362
1088,895152190,160.817490,3.761161,118.827148,-0.445606,0.032821,-0.097921,-3.404440,-0.591064,-0.438797
1089,895168857,160.920563,3.695181,118.709984,-0.439806,0.171221,0.093309,8.078984,0.411756,7.846358
1090,895185524,161.122437,3.571195,118.488350,-0.195144,0.077985,-0.064502,14.389372,1.687053,14.890562
1091,895202191,161.250107,3.449598,118.213654,-0.193698,-0.090133,-0.111838,10.102913,0.568366,17.846771
1092,895218858,161.349091,3.356887,117.946442,-0.388585,-0.349473,-0.037522,8.325296,-0.895242,16.866117
1093,895235525,161.406906,3.284349,117.718559,-0.072111,-0.301381,0.048376,5.692126,-1.266997,14.246969
1094,895252192,161.212891,3.180027,117.540901,0.434485,-0.130430,-0.253172,-9.610085,1.486261,12.010131
1095,895268859,160.854584,3.092001,117.410637,-0.572678,-0.772318,-0.587811,-19.638298,1.428070,9.019801
1096,895285526,160.570984,3.058719,117.268288,-0.482613,-0.779036,-0.132483,-15.131040,-1.962191,8.636170
1097,895302193,160.158951,3.052123,117.143936,0.042028,-0.157304,0.432504,-22.901398,-3.157387,7.074107
1098,895318860,159.539017,3.018780,117.107559,0.078832,0.038635,0.456473,-35.656845,0.102112,2.655582
1099,895335527,158.699432,2.953496,117.159576,-0.511419,-0.528067,-0.066066,-49.114407,3.744076,-1.593367
1100,895352194,157.813538,2.888978,117.262329,-1.370767,-1.017362,-0.574703,-52.047676,4.850728,-4.361859
1101,895368861,157.115875,2.803842,117.312172,-1.446718,-0.920039,-0.488004,-40.596722,4.838978,-0.881517
1102,895385528,156.541229,2.618313,117.233612,-1.037407,-0.489608,-0.286109,-32.852215,7.357951,8.629665
1103,895402195,156.144272,2.291403,116.965393,-1.094093,-0.310136,0.141195,-21.730433,10.488804,22.519199
1104,895418862,155.883911,1.767231,116.453377,-0.228609,0.156886,1.061962,-13.142587,15.227713,40.753986
1105,895435529,155.610168,1.049126,115.637947,0.658504,-0.444296,-0.074478,-13.830175,18.164635,62.209557
1106,895452196,155.017136,0.290521,114.530296,1.223751,-1.437302,-1.304980,-33.408634,12.576933,79.311607
1107,895468863,153.975113,-0.557456,113.199844,1.729433,-1.454169,-0.447895,-61.305874,10.534634,93.874222
1108,895485530,152.509491,-1.569365,111.750031,1.492498,-1.811179,0.832074,-88.142967,14.048016,104.924011
1109,895502197,150.804840,-2.701136,110.264938,0.825272,-1.876894,1.095495,-104.184219,16.497490,110.540817
1110,895518864,149.542984,-3.876639,108.890671,-1.016605,-2.504403,0.538010,-79.029953,19.254688,106.435661
1111,895535531,149.564636,-5.047893,107.527565,-0.442081,-2.411196,1.245429,-3.666607,18.285837,105.845703
1112,895552198,149.733643,-6.109806,106.097534,2.055117,-1.277949,0.461391,3.188876,10.861006,105.835274
1113,895568865,149.489609,-7.128409,104.643829,1.371080,-1.515775,-0.085306,-23.295214,7.924033,105.613335
1114,895585532,149.209122,-8.135214,103.190796,1.598799,-1.737974,-0.908925,-26.998636,6.963287,105.090797
1115,895602199,148.807083,-9.101092,101.667694,2.446908,-1.812700,-1.252176,-36.399269,2.205936,107.264786
1116,895618866,148.160233,-10.190535,100.112000,3.458861,-1.977951,-0.852031,-53.020134,6.682187,112.589989
1117,895635533,147.031235,-11.609815,98.614998,4.456535,-2.586283,-0.181039,-83.274879,23.700138,120.087349
1118,895652200,145.348511,-13.426003,97.278847,3.246404,-2.967940,-0.272444,-116.862488,46.071278,125.671082
1119,895668867,143.101700,-15.547507,96.126816,2.992056,-2.333047,-0.770268,-150.603073,63.230019,128.751389
1120,895685534,140.294754,-17.817055,95.116821,2.965248,-1.413246,-0.745070,-184.291260,69.976517,130.005341
1121,895702201,137.129745,-20.120752,94.080078,3.385257,-1.353406,-0.082883,-208.585785,64.123627,135.491837
1122,895718868,133.763504,-22.492138,93.032936,2.685143,-1.642095,0.089334,-223.246109,59.400509,141.631836
1123,895735535,130.310196,-24.967169,91.971642,1.399974,-1.445684,0.881255,-231.259109,55.196884,149.457520
1124,895752202,127.096146,-27.518541,90.972092,0.107410,-0.392858,0.511376,-217.783264,52.787418,153.229019
1125,895768869,124.170929,-30.095692,90.079208,-0.110002,0.787534,0.476704,-199.760071,50.957844,153.163803
1126,895785536,121.403389,-32.671597,89.306412,0.473063,1.208054,0.464743,-188.633682,49.419098,151.502640
1127,895802203,118.636848,-35.260178,88.670364,1.219083,1.051085,0.677254,-185.748260,49.287556,150.446732
1128,895818870,115.867424,-37.898396,88.115211,1.282016,0.464944,1.155744,-184.447220,47.668449,153.101822
1129,895835537,113.177048,-40.530117,87.685829,0.093673,1.049167,0.682407,-176.146255,46.317036,152.077148
1130,895852204,110.579590,-43.125069,87.348473,-0.926823,1.684483,0.241012,-167.783752,42.949421,150.226959
1131,895868871,108.209175,-45.633316,87.094688,-1.517800,2.286314,-0.254888,-151.324661,38.623131,145.678131
