sep=,
DeviceTag:,DOT10
FirmwareVersion:,3.0.0
AppVersion:,2023.6.0
SyncStatus:,Synced
OutputRate:,60Hz
FilterProfile:,Dynamic
Measurement Mode:,Custom modes - custom mode1
StartTime: ,2026-06-02_18:27:27_693 GMT+2
© Movella Technologies B. V. 2005-2026

PacketCounter,SampleTimeFine,Euler_X,Euler_Y,Euler_Z,FreeAcc_X,FreeAcc_Y,FreeAcc_Z,Gyr_X,Gyr_Y,Gyr_Z
1,2512958765,81.359245,4.683324,-13.323561,0.389812,-0.344269,0.369181,-0.378543,-9.295286,3.898107
2,2512975432,81.310722,4.593603,-13.440504,0.323978,-0.438863,0.290177,-0.905524,-8.727581,4.084003
3,2512992099,81.254486,4.514484,-13.550813,0.313554,-0.353105,0.237636,-1.411158,-8.242528,3.507603
4,2513008766,81.201508,4.453446,-13.652169,0.274784,-0.281030,0.122225,-1.262604,-7.554403,2.509117
5,2513025433,81.166840,4.417189,-13.746804,0.208946,-0.255760,-0.042000,-0.201508,-6.932002,1.095321
6,2513042100,81.156830,4.409959,-13.827497,0.116657,-0.196522,-0.200319,1.212115,-5.840837,-0.500165
7,2513058767,81.183899,4.432946,-13.896300,0.068923,-0.011942,-0.338827,3.382420,-4.857052,-2.181997
8,2513075434,81.208092,4.481878,-13.942651,0.099806,0.120785,-0.350187,3.108031,-3.293486,-3.513242
9,2513092101,81.209755,4.549486,-13.958467,0.067809,0.141794,-0.358250,1.614004,-1.320373,-4.341444
10,2513108768,81.193512,4.628314,-13.943182,0.043191,0.175835,-0.357904,0.392572,0.623893,-4.721522
11,2513125435,81.150368,4.708057,-13.895363,0.128695,0.257293,-0.272279,-1.382753,2.556833,-4.476524
12,2513142102,81.092911,4.780464,-13.822690,0.146963,0.290364,-0.276087,-2.369559,3.960422,-3.809173
13,2513158769,81.012222,4.835316,-13.729840,0.207881,0.291536,-0.188521,-3.871527,4.993562,-2.575357
14,2513175436,80.902611,4.869427,-13.629140,0.196345,0.264119,-0.173018,-5.649663,5.263725,-1.263321
15,2513192103,80.789383,4.881197,-13.539938,0.122462,0.181368,-0.211189,-5.813097,4.377204,-0.036780
16,2513208770,80.708054,4.869483,-13.485249,0.058559,0.112775,-0.285686,-3.721897,2.114028,1.031058
17,2513225437,80.671028,4.830981,-13.476133,0.078948,0.128491,-0.310044,-0.831478,-0.836306,2.179404
18,2513242104,80.661629,4.776281,-13.506348,0.132681,0.159991,-0.365756,1.023163,-3.315141,2.757092
19,2513258771,80.674026,4.711829,-13.570203,0.165260,0.185860,-0.380296,2.496783,-5.398324,3.008000
20,2513275438,80.714767,4.656176,-13.657769,0.172461,0.126727,-0.346658,4.307551,-6.707417,2.259764
21,2513292105,80.786591,4.624281,-13.761377,0.183302,0.099951,-0.290604,6.246728,-7.424907,0.703831
22,2513308772,80.885704,4.618249,-13.868117,0.257642,0.198566,-0.235753,7.896430,-7.359811,-0.848549
23,2513325439,80.994484,4.639989,-13.960513,0.337333,0.281176,-0.188484,8.408019,-6.254471,-2.348673
24,2513342106,81.097527,4.692205,-14.024213,0.365825,0.313651,-0.188257,7.924912,-4.276042,-3.878161
25,2513358773,81.190300,4.774136,-14.059468,0.383988,0.309969,-0.097061,7.172704,-2.326338,-5.372585
26,2513375440,81.290047,4.885593,-14.068092,0.390731,0.214566,-0.021939,7.457094,-0.492187,-6.880009
27,2513392107,81.397179,5.024351,-14.053478,0.455212,0.078018,0.063828,7.780480,1.116708,-8.291551
28,2513408774,81.497765,5.192487,-14.016668,0.465812,-0.037236,0.088099,7.267665,2.675575,-9.842210
29,2513425441,81.592026,5.389286,-13.966881,0.520068,-0.030759,0.086376,6.808596,3.679311,-11.436768
30,2513442108,81.665840,5.606139,-13.904363,0.663256,-0.004237,0.194009,5.497456,4.586271,-12.525579
31,2513458775,81.719429,5.832505,-13.829144,0.878857,-0.016209,0.233446,4.195024,5.404700,-12.988325
32,2513475442,81.765762,6.071019,-13.730956,1.180009,-0.031472,0.257275,3.597287,6.851691,-13.520850
33,2513492109,81.809418,6.339317,-13.594252,1.497648,0.067899,0.230262,3.160144,9.371153,-14.970693
34,2513508776,81.859573,6.659872,-13.391341,1.957336,-0.062277,0.175860,3.058603,13.705423,-17.526417
35,2513525443,81.976616,7.047226,-13.120513,2.202870,-0.167190,-0.078024,6.509031,18.244135,-20.952744
36,2513542110,82.189865,7.484885,-12.776220,2.352465,-0.032695,-0.018380,11.609035,22.915592,-23.402908
37,2513558777,82.490822,7.960037,-12.354692,2.329757,0.112784,0.041134,16.084440,27.641291,-25.136602
38,2513575444,82.836090,8.450858,-11.866720,1.987964,0.151377,0.249616,17.960089,31.505535,-25.735641
39,2513592111,83.102020,8.936914,-11.327208,1.591793,0.071236,0.699489,12.487053,34.331890,-25.260086
40,2513608778,83.157799,9.408257,-10.756351,1.095650,-0.170141,1.150080,-0.689691,35.959148,-24.269337
41,2513625445,82.936172,9.858573,-10.202393,0.340508,-0.358054,1.319818,-17.433243,34.802139,-23.093279
42,2513642112,82.367371,10.273143,-9.697946,-0.697910,-0.603026,1.115550,-37.991333,31.743906,-21.099199
43,2513658779,81.493935,10.645286,-9.293792,-1.663663,-0.617535,0.868414,-55.376949,25.751436,-18.999414
44,2513675446,80.403709,10.971906,-9.011270,-2.463390,-0.503599,0.784727,-67.158463,18.535307,-16.968466
45,2513692113,79.186401,11.257061,-8.871891,-3.396814,-0.461535,0.560885,-73.215393,10.114396,-15.613380
46,2513708780,77.921303,11.504786,-8.882097,-4.108915,-0.247866,0.180640,-74.344627,1.365754,-14.907329
47,2513725447,76.558914,11.731895,-9.019472,-4.662397,-0.184194,0.005777,-78.643463,-5.858193,-15.281986
48,2513742114,74.950729,11.964956,-9.247406,-5.051185,-0.185095,-0.099889,-92.240829,-10.523832,-17.043264
49,2513758781,73.048882,12.214184,-9.563200,-5.399198,-0.247990,-0.461928,-108.697922,-14.687601,-19.665995
50,2513775448,70.937538,12.465767,-9.976685,-5.592852,-0.464054,-0.914545,-119.929802,-19.387680,-22.018539
51,2513792115,68.657043,12.700432,-10.470064,-5.492277,-0.551297,-0.885572,-128.927856,-23.259268,-23.348455
52,2513808782,66.279831,12.909883,-11.008009,-5.388737,-0.399533,-0.644507,-134.022171,-25.271017,-23.813227
53,2513825449,63.804569,13.061255,-11.588756,-5.159030,-0.050388,-0.068953,-139.226288,-27.971960,-22.692532
54,2513842116,61.222286,13.154749,-12.211385,-4.745486,0.168801,0.518430,-145.002213,-30.718790,-21.891499
55,2513858783,58.599739,13.194150,-12.879654,-4.282369,0.271193,1.051935,-146.748077,-33.633354,-21.729624
56,2513875450,55.944252,13.198177,-13.596438,-3.751169,0.249018,1.781466,-148.043106,-36.140671,-22.945250
57,2513892117,53.294292,13.169524,-14.384718,-3.415220,0.359998,2.131427,-146.738617,-39.597408,-25.360794
58,2513908784,50.673470,13.102643,-15.247998,-2.818723,0.713328,2.427635,-144.004501,-43.274349,-27.997513
59,2513925451,48.011612,13.023640,-16.152906,-2.154887,1.184837,2.319230,-145.965286,-44.282429,-30.954271
60,2513942118,45.398674,12.896195,-17.077774,-1.723121,1.504763,1.912951,-142.856140,-45.683113,-31.610344
61,2513958785,42.843235,12.713009,-17.980259,-1.214327,1.715646,1.855855,-139.852066,-45.734077,-30.343054
62,2513975452,40.407166,12.457111,-18.829525,-0.828526,1.658532,1.758169,-133.590897,-45.602726,-27.065681
63,2513992119,38.111717,12.140322,-19.610777,-0.420859,1.398510,1.695039,-126.274094,-44.794727,-23.523533
64,2514008786,35.933537,11.765007,-20.307049,-0.197052,1.239668,1.301253,-120.575356,-43.684704,-19.162609
65,2514025453,33.820862,11.306346,-20.902735,0.031338,1.405197,0.826722,-118.150810,-43.700939,-13.086243
66,2514042120,31.715881,10.760713,-21.374132,0.292378,1.451512,0.551023,-119.425095,-43.658081,-5.721576
67,2514058787,29.685318,10.109983,-21.675821,0.477403,1.484474,0.520452,-117.098785,-43.765984,4.528204
68,2514075454,27.673233,9.364009,-21.785673,0.867007,1.354853,-0.106329,-118.158173,-43.492458,15.678568
69,2514092121,25.625793,8.570119,-21.682524,1.146062,1.208196,-0.708308,-122.362991,-40.937912,26.724098
70,2514108788,23.563551,7.729563,-21.364906,0.954450,0.673499,-1.568645,-124.992638,-39.113846,38.034218
71,2514125455,21.417084,6.867622,-20.836872,1.118111,0.466898,-1.916174,-131.371094,-36.869194,48.704754
72,2514142122,19.162539,5.984068,-20.059036,1.477393,0.150802,-2.200693,-139.056107,-34.747128,61.765892
73,2514158789,16.867695,5.124503,-19.012743,2.125621,-0.045114,-2.251353,-142.328690,-30.823677,75.248581
74,2514175456,14.593863,4.315516,-17.711142,2.895200,-0.037396,-2.325416,-141.419113,-26.715328,87.952621
75,2514192123,12.366346,3.569911,-16.199781,3.046930,-0.362680,-2.213982,-138.452240,-23.503304,98.274704
76,2514208790,10.260372,2.876533,-14.487711,3.082932,-1.070639,-2.317958,-130.702408,-21.752609,108.597458
77,2514225457,8.478451,2.192984,-12.602763,3.096884,-1.919683,-2.402450,-110.486519,-23.139545,118.016693
78,2514242124,7.285553,1.507079,-10.571680,3.781334,-2.398138,-2.676211,-74.079102,-25.119043,126.146873
79,2514258791,7.023595,0.852775,-8.434206,4.573561,-2.518140,-3.076189,-16.933302,-24.026659,131.963989
80,2514275458,7.891479,0.231523,-6.222070,5.155017,-2.494553,-3.131792,52.236595,-20.762859,136.287949
81,2514292125,9.868371,-0.367547,-3.997096,5.486038,-2.544499,-3.065331,120.186363,-15.920392,137.302963
82,2514308792,12.649835,-0.948992,-1.866259,6.069304,-2.711135,-3.487738,169.772263,-10.253966,132.051590
83,2514325459,15.947505,-1.442050,-0.048776,6.348896,-2.782992,-3.762745,201.562042,-2.724679,112.808144
84,2514342126,19.579180,-1.816995,1.192445,5.738461,-1.830567,-3.005123,221.462189,0.319420,77.606415
85,2514358793,23.330942,-2.046736,1.690790,4.623666,-1.188795,-2.184934,227.572510,-2.854312,32.687656
86,2514375460,27.160320,-2.078181,1.382115,3.563495,-1.669844,-1.812588,230.560120,-10.546714,-16.118732
87,2514392127,30.971163,-1.873918,0.297045,3.189155,-1.647411,-1.977467,227.867462,-21.839422,-63.027039
88,2514408794,34.592556,-1.388322,-1.415781,3.326828,-1.169929,-1.874372,215.813187,-32.064415,-102.356544
89,2514425461,37.945091,-0.611955,-3.531944,4.116194,-0.134412,-1.189265,200.383179,-38.478493,-130.131439
90,2514442128,41.011417,0.451430,-5.808845,5.235957,0.488875,-0.217421,185.227097,-38.542049,-146.248291
91,2514458795,43.812843,1.768085,-8.039012,5.803858,0.454597,0.315207,172.110489,-32.824211,-152.296509
92,2514475462,46.514141,3.279564,-10.112535,5.521513,0.090618,-0.017970,168.982803,-25.106474,-152.206146
93,2514492129,49.175037,4.907778,-12.045761,4.237329,0.019701,-0.248693,169.353851,-21.105907,-150.347626
94,2514508796,51.836384,6.548309,-13.865011,3.010011,-0.141652,-0.483725,171.987366,-22.110888,-145.325821
95,2514525463,54.634327,8.156789,-15.517377,2.932095,-0.094118,-0.601342,181.972565,-21.910664,-136.473175
96,2514542130,57.515404,9.735439,-16.926798,2.918548,-0.012576,-0.068566,187.417297,-17.354107,-125.535751
97,2514558797,60.359039,11.246548,-18.096539,1.849136,-0.488665,0.433748,184.797302,-13.238922,-113.605728
98,2514575464,63.075077,12.704334,-19.108784,0.970666,-0.619331,0.165176,176.963669,-11.786288,-105.517548
99,2514592131,65.604332,14.125147,-20.008070,0.561514,-0.121175,-0.153239,165.670990,-11.309761,-99.915283
100,2514608798,67.721260,15.572820,-20.800297,0.536032,0.499699,-0.137903,140.596008,-8.706995,-98.305267
101,2514625465,69.389275,17.002264,-21.475885,-0.044088,0.769356,-0.114491,112.845528,-5.788157,-94.404060
102,2514642132,70.723389,18.381994,-22.031796,-0.579461,0.832090,0.227796,91.576515,-2.573533,-89.008011
103,2514658799,71.754799,19.673199,-22.485619,-1.053563,0.813223,0.347172,72.156586,-0.409782,-81.986847
104,2514675466,72.585838,20.866535,-22.859936,-1.276908,0.619071,0.087304,59.036270,0.910785,-74.958656
105,2514692133,73.232048,21.969294,-23.187246,-1.314044,0.414975,0.088082,47.334782,1.011855,-68.959473
106,2514708800,73.809250,22.943197,-23.500017,-1.503061,0.312864,0.247699,43.190334,-1.018727,-61.292809
107,2514725467,74.362549,23.757215,-23.784290,-1.459276,0.414465,0.706743,41.352245,-2.635856,-51.597759
108,2514742134,74.844162,24.403700,-24.036074,-1.281467,0.413229,0.743715,36.453648,-3.970587,-41.390491
109,2514758801,75.244339,24.918133,-24.276243,-1.464664,0.093514,0.496271,31.418215,-5.664035,-33.527443
110,2514775468,75.610252,25.333244,-24.549448,-1.883549,-0.295383,0.332123,30.307247,-9.074534,-28.162481
111,2514792135,76.037773,25.658628,-24.894009,-2.246592,-0.551951,0.141842,35.946854,-14.291823,-23.816206
112,2514808802,76.537712,25.893591,-25.305050,-2.215429,-0.292819,0.054758,42.120968,-19.217644,-19.273264
113,2514825469,77.057777,26.034475,-25.743963,-1.551443,0.318460,0.243044,44.135677,-22.110418,-13.944131
114,2514842136,77.431877,26.072554,-26.120935,-1.132109,0.746435,0.262738,33.782452,-20.300100,-7.014564
115,2514858803,77.704521,26.006645,-26.401209,-0.939307,0.430815,0.312658,25.140701,-16.596451,0.311816
116,2514875470,77.960342,25.861727,-26.597885,-1.044381,0.151076,0.211185,21.910431,-13.200369,5.969381
117,2514892137,78.247017,25.658817,-26.717392,-1.029494,0.058310,0.087774,21.718014,-9.821239,10.292366
118,2514908804,78.513710,25.426105,-26.767979,-0.818984,0.190288,0.245434,18.711040,-6.489105,12.838229
119,2514925471,78.736946,25.187593,-26.761065,-1.244857,0.104876,0.105721,14.619518,-3.450932,13.818928
120,2514942138,78.929871,24.953875,-26.711933,-1.426238,0.046159,0.163626,11.730035,-1.093561,13.993958
121,2514958805,79.112488,24.735592,-26.619987,-1.443269,0.102221,0.202128,10.045919,1.422781,13.535064
122,2514975472,79.264572,24.537334,-26.484463,-1.799062,-0.078262,0.411409,7.141716,4.033613,12.799462
123,2514992139,79.372749,24.357214,-26.329050,-2.182524,-0.099086,0.593656,4.043409,5.338695,11.927143
124,2515008806,79.407028,24.197397,-26.151743,-2.373049,-0.055462,0.790741,-0.902105,6.767385,10.950414
125,2515025473,79.326225,24.059433,-25.956049,-2.772394,-0.115176,1.065592,-8.231865,8.009515,9.861251
126,2515042140,79.077011,23.961981,-25.771961,-3.295606,-0.219274,1.202874,-18.024876,7.817655,7.389525
127,2515058807,78.657387,23.927689,-25.623501,-3.830020,-0.507412,1.244417,-27.365747,6.593938,3.357008
128,2515075474,78.126862,23.967102,-25.519053,-4.339927,-0.492578,0.781201,-32.939285,5.084530,-1.387663
129,2515092141,77.524094,24.087093,-25.460312,-4.479101,-0.124339,0.327361,-36.160042,3.667180,-6.569343
130,2515108808,76.821846,24.275530,-25.451960,-4.581063,0.223707,0.297437,-40.893318,1.958584,-11.118671
131,2515125475,76.036613,24.488646,-25.489422,-4.573595,0.312984,0.496937,-44.737007,0.010994,-13.092134
132,2515142142,75.144775,24.686277,-25.570335,-4.441670,0.008488,1.018349,-50.032398,-2.328152,-12.751069
133,2515158809,74.122818,24.823509,-25.721275,-4.507357,-0.245077,1.111950,-56.064716,-6.750229,-10.272720
134,2515175476,72.965233,24.885147,-25.966133,-4.348871,-0.044228,0.736279,-61.812572,-12.740963,-7.463327
135,2515192143,71.594498,24.879498,-26.284836,-3.876643,0.310957,0.784984,-72.722572,-17.636946,-5.084593
136,2515208810,69.995720,24.804747,-26.641531,-3.159907,0.542662,1.213500,-85.457214,-20.825035,-2.268412
137,2515225477,68.196533,24.653149,-27.011103,-3.042450,0.081120,1.782876,-97.192139,-23.078379,1.204435
138,2515242144,66.250282,24.409950,-27.409260,-2.716233,-0.170577,2.131197,-105.370911,-26.706362,4.942542
139,2515258811,64.218056,24.055784,-27.859280,-2.779552,-0.359729,1.772064,-109.361496,-32.279537,8.892455
140,2515275478,62.194241,23.566828,-28.355188,-2.583369,0.106712,1.144713,-107.918579,-38.553490,13.832233
141,2515292145,60.151024,22.964100,-28.842136,-1.748147,0.659908,1.086370,-109.552811,-41.985836,18.662424
142,2515308812,57.981827,22.254185,-29.273958,-1.114976,1.003255,1.399981,-118.689484,-43.449192,24.168385
143,2515325479,55.701511,21.429388,-29.638113,-0.908118,0.746902,1.714219,-127.186882,-45.089340,30.267756
144,2515342146,53.372677,20.450373,-29.955290,-0.935766,0.407927,2.093294,-131.425766,-49.607502,37.462814
145,2515358813,50.969234,19.257582,-30.247681,-1.005859,0.945375,1.480008,-136.741669,-57.983486,46.338886
146,2515375480,48.561638,17.866400,-30.487785,-0.430249,1.398964,0.418131,-138.361710,-65.406815,54.833126
147,2515392147,46.139801,16.335354,-30.616528,0.174760,1.895951,-0.320161,-141.530777,-68.742638,62.495659
148,2515408814,43.606205,14.706847,-30.575745,0.033017,1.745653,-0.408645,-151.169922,-68.660393,70.540482
149,2515425481,40.973057,13.002300,-30.366196,-0.231092,1.133690,-0.411726,-159.500458,-68.528244,77.777687
150,2515442148,38.305607,11.222385,-29.994715,-0.552911,0.892480,-0.709234,-163.226028,-69.431923,84.838257
151,2515458815,35.669956,9.371025,-29.432081,-0.567532,0.942256,-1.901732,-162.677994,-69.842743,93.289070
152,2515475482,32.955185,7.519059,-28.649937,0.149506,1.124806,-2.416534,-168.284164,-66.719933,100.901268
153,2515492149,30.009947,5.774964,-27.634216,0.435964,1.041568,-2.765209,-182.277496,-58.739319,106.192360
154,2515508816,26.879313,4.166844,-26.387741,0.234896,0.604213,-2.155912,-192.832657,-50.462410,111.388084
155,2515525483,23.725847,2.707615,-24.934063,-0.538653,-0.274608,-1.733337,-192.954956,-43.059246,116.037018
156,2515542150,20.840124,1.349457,-23.237925,-0.701798,-0.849829,-2.231239,-175.265076,-37.954414,124.914314
157,2515558817,18.327698,0.045192,-21.215326,0.221601,-1.253964,-3.078288,-150.741501,-34.170891,140.454086
158,2515575484,16.141840,-1.134890,-18.824436,1.702725,-1.839856,-3.789526,-128.306274,-26.238338,157.866898
159,2515592151,14.348266,-2.186882,-16.033644,4.448358,-2.455025,-3.612443,-101.280037,-17.991337,177.960602
160,2515608818,13.065038,-3.051213,-12.884046,8.122218,-2.348113,-3.189111,-66.882637,-6.740165,195.555588
161,2515625485,12.479205,-3.595535,-9.645286,10.645207,-2.569866,-2.416481,-22.422119,9.971395,196.270691
162,2515642152,12.784355,-3.787471,-6.625606,11.243057,-4.146497,-2.027250,31.424013,27.267757,178.796417
163,2515658819,14.104902,-3.731369,-4.131047,9.529366,-4.668302,-2.092458,90.497627,37.000717,144.318634
164,2515675486,16.397837,-3.575926,-2.413798,7.323167,-4.372793,-2.887811,145.610229,35.080910,96.584702
165,2515692153,19.470263,-3.366485,-1.679824,4.556758,-3.602284,-2.929207,188.504532,24.550610,37.778454
166,2515708820,22.955315,-3.157022,-1.990830,3.166682,-3.371390,-2.495983,209.548004,4.045128,-22.107500
167,2515725487,26.762447,-2.876158,-3.261523,3.153860,-2.907152,-1.655039,225.922852,-17.642445,-76.378937
168,2515742154,30.586437,-2.422163,-5.258134,3.923219,-1.700599,-0.973555,225.402557,-34.441982,-118.289619
169,2515758821,34.234470,-1.714434,-7.673686,5.047107,-0.735798,-1.062876,215.141312,-42.696056,-145.280243
170,2515775488,37.739273,-0.728829,-10.194427,5.833147,0.002098,-0.802949,208.543991,-41.907265,-157.365555
171,2515792155,40.979111,0.487317,-12.569939,5.432182,0.341336,0.217476,195.564667,-34.856480,-156.751022
172,2515808822,44.065102,1.824154,-14.737800,3.754734,-0.287813,0.518596,189.250519,-29.655781,-150.356476
173,2515825489,47.120647,3.192756,-16.738901,2.346120,-0.738361,0.500216,190.049911,-29.099581,-142.910904
174,2515842156,50.146175,4.621704,-18.604832,2.094805,-0.879568,-0.175340,190.616577,-28.036293,-138.488708
175,2515858823,53.201176,6.167325,-20.331488,1.780993,-1.003145,-0.733077,194.490601,-24.274710,-137.055237
176,2515875490,56.418201,7.808841,-21.932606,0.597741,-0.724851,-1.078829,206.153839,-22.043953,-135.801514
177,2515892157,59.758297,9.489357,-23.421972,-0.289494,0.202581,-1.654781,215.282745,-22.579678,-132.663925
178,2515908824,62.960548,11.216447,-24.797062,-0.022812,0.216841,-0.994595,208.397507,-22.461481,-130.224670
179,2515925491,66.003372,12.964299,-26.093491,-0.124265,-1.013722,-0.331179,200.292831,-24.371199,-127.787292
180,2515942158,68.958359,14.760167,-27.305613,-0.240547,-0.197538,0.057415,196.154205,-24.875423,-126.964203
181,2515958825,71.676392,16.597603,-28.278732,0.803425,1.573167,1.630742,180.290009,-16.728291,-123.125496
182,2515975492,73.992317,18.364563,-28.839170,1.073519,2.154968,1.745480,150.480484,-0.292687,-111.148468
183,2515992159,76.019958,20.010975,-28.981220,0.256720,1.551852,1.012156,125.882874,16.828691,-97.893211
184,2516008826,77.811661,21.584505,-28.845539,-1.024648,0.753064,0.278750,106.026550,27.828974,-90.624557
185,2516025493,79.443611,23.091785,-28.566881,-1.394341,0.619664,0.010019,92.978775,32.030174,-85.993782
186,2516042160,80.953926,24.490095,-28.179010,-1.152876,1.021365,0.432006,82.652405,34.293537,-79.424782
187,2516058827,82.346657,25.718985,-27.681589,-0.873545,1.452598,0.509174,72.324509,36.463745,-69.398590
188,2516075494,83.637962,26.768751,-27.081215,-0.706584,1.504543,0.670367,62.972164,38.762169,-58.940716
189,2516092161,84.736694,27.662233,-26.419924,-0.877499,1.142568,0.757720,49.200321,39.540287,-50.120487
190,2516108828,85.637672,28.422714,-25.766632,-1.307536,0.712282,0.759143,37.056366,37.299919,-42.922047
191,2516125495,86.349129,29.070160,-25.174589,-1.238984,0.757882,0.486131,27.029362,32.780453,-36.926636
192,2516142162,86.868805,29.615025,-24.638458,-0.737866,0.850467,0.458129,16.844105,28.920753,-31.322302
193,2516158829,87.268639,30.053717,-24.144470,-0.857021,0.891356,0.111348,10.674947,26.015877,-25.313774
194,2516175496,87.590508,30.397203,-23.683199,-0.930834,0.971065,-0.154632,6.807232,23.805735,-19.853586
195,2516192163,87.848213,30.667562,-23.238342,-0.888871,0.992813,-0.176965,3.329769,22.609573,-15.626119
196,2516208830,88.042061,30.875856,-22.799055,-0.762420,0.879220,-0.222564,-0.426363,22.069031,-12.005210
197,2516225497,88.160492,31.038679,-22.354998,-0.652987,0.982753,-0.433375,-5.173020,22.146879,-9.330814
198,2516242164,88.240440,31.150499,-21.880842,-0.718101,1.158338,-0.831236,-8.469371,23.547825,-6.261270
199,2516258831,88.271057,31.229740,-21.343798,-0.958436,1.231973,-1.162675,-13.426873,26.684551,-4.229515
200,2516275498,88.288277,31.251900,-20.742912,-1.123631,0.952957,-0.902470,-16.242615,29.837128,-0.714098
201,2516292165,88.357330,31.219938,-20.118752,-0.749894,0.401588,-0.007402,-13.852302,30.935024,2.549018
202,2516308832,88.553215,31.122120,-19.497133,-0.419468,-0.075846,0.487082,-6.126618,30.724648,6.424770
203,2516325499,88.823967,30.980803,-18.893522,-0.852914,0.014813,0.533900,-1.009989,29.809053,8.886106
204,2516342166,89.088356,30.823050,-18.337641,-1.161273,-0.008923,0.524104,0.159446,27.428724,9.687693
205,2516358833,89.269875,30.664759,-17.863049,-1.547030,-0.290731,0.723542,-2.234354,23.320948,9.554845
206,2516375500,89.388664,30.502323,-17.517303,-1.880043,-0.581380,1.093882,-1.994938,16.732510,9.667802
207,2516392167,89.493378,30.324356,-17.309635,-2.109568,-0.536185,1.319177,1.412138,9.631849,10.502604
208,2516408834,89.533806,30.127132,-17.211189,-2.214998,-0.384760,1.515526,0.893929,3.994181,11.604334
209,2516425501,89.495628,29.932745,-17.191010,-2.517391,-0.459657,1.505746,-1.452266,-0.058948,11.407305
210,2516442168,89.306885,29.774588,-17.236885,-2.949462,-0.779857,1.565850,-8.506278,-3.491577,9.209571
211,2516458835,88.871048,29.682009,-17.349703,-3.397886,-0.826958,1.557179,-21.340412,-6.967166,5.216759
212,2516475502,88.178474,29.664488,-17.525955,-3.622335,-0.941705,1.599353,-34.859722,-10.211637,0.583453
213,2516492169,87.187401,29.709789,-17.776342,-3.814854,-0.962509,1.620765,-50.557831,-13.924824,-3.461475
214,2516508836,85.949417,29.803076,-18.136621,-4.457236,-0.930231,1.166319,-62.077938,-19.390951,-6.914779
215,2516525503,84.456566,29.928793,-18.640207,-4.903553,-0.824158,1.173919,-73.044579,-26.468065,-9.894961
216,2516542170,82.716248,30.062754,-19.293756,-5.031814,-0.492447,1.381435,-83.327751,-33.836739,-11.949875
217,2516558837,80.782639,30.174833,-20.109470,-4.705877,-0.426636,1.973750,-89.964653,-41.915371,-12.881121
218,2516575504,78.702744,30.219841,-21.086105,-4.323604,-0.399335,2.484891,-93.818199,-50.340992,-11.808790
219,2516592171,76.581108,30.170176,-22.204721,-3.483398,-0.162018,2.951016,-92.035789,-58.288078,-9.621894
220,2516608838,74.375427,30.006565,-23.431974,-2.661173,0.397312,3.238059,-93.909088,-65.128021,-6.578119
221,2516625505,71.963722,29.735054,-24.763126,-2.053879,0.470831,3.402799,-103.406227,-71.998009,-4.555846
222,2516642172,69.288147,29.373663,-26.229776,-2.472857,0.442800,3.267694,-115.606926,-80.401558,-5.027433
223,2516658839,66.363274,28.938276,-27.831612,-2.564463,0.980340,2.914019,-127.140953,-88.583801,-7.568196
224,2516675506,63.069939,28.434761,-29.496685,-1.627406,2.419098,2.342493,-148.109665,-93.160736,-10.189540
225,2516692173,59.399548,27.876163,-31.105822,-0.638717,3.038151,2.014566,-173.134048,-91.768684,-11.651097
226,2516708840,55.459629,27.225668,-32.649776,-0.647805,2.775519,2.242946,-192.019531,-91.261375,-11.389046
227,2516725507,51.386074,26.419794,-34.156349,-0.638745,2.601660,1.930637,-202.099045,-94.646431,-9.309767
228,2516742174,47.382534,25.425125,-35.611347,-0.721596,2.802612,0.339015,-200.528732,-99.512421,-5.874017
229,2516758841,43.393894,24.305819,-36.960888,-0.811798,3.266128,-1.292241,-203.753876,-100.541100,-3.854119
230,2516775508,39.297623,23.120708,-38.182682,-0.632713,3.130743,-1.874130,-214.783493,-98.813072,-3.482054
231,2516792175,35.094704,21.896561,-39.247593,-0.379627,2.777098,-1.402067,-226.211349,-95.297653,-2.682950
232,2516808842,31.123577,20.574936,-40.140045,-0.330560,2.197139,-0.731943,-217.374100,-94.805626,1.434935
233,2516825509,27.726305,19.074574,-40.805359,-0.271397,1.640527,-0.267134,-188.804688,-97.986366,11.439174
234,2516842176,25.130722,17.395079,-41.259720,-1.200970,1.514409,-1.305541,-145.717209,-102.894875,21.581020
235,2516858843,23.116028,15.617936,-41.485622,-1.943308,1.317610,-3.469152,-115.546394,-103.766670,31.633249
236,2516875510,21.254534,13.835725,-41.516750,-1.630444,1.051519,-4.587932,-109.729965,-100.847168,38.618835
237,2516892177,19.313822,12.157226,-41.393192,-0.880788,1.040507,-4.080336,-116.625328,-93.118576,41.600361
238,2516908844,17.215864,10.628439,-41.106613,-0.144776,0.979841,-3.119003,-127.790436,-82.990173,44.660091
239,2516925511,15.068395,9.240582,-40.628281,0.413500,0.957905,-2.468129,-132.322083,-73.298241,50.212719
240,2516942178,12.932235,7.953491,-39.938732,0.390734,0.664915,-2.770528,-132.881531,-66.207649,58.270905
241,2516958845,10.800250,6.767634,-39.009567,0.249643,0.233459,-3.192109,-133.593460,-59.435970,68.626625
242,2516975512,8.445058,5.691008,-37.843678,0.055134,-0.228413,-3.535623,-147.436844,-53.238953,79.243736
243,2516992179,5.864574,4.732383,-36.430004,0.066084,-1.007950,-3.561879,-161.068863,-47.723469,90.852982
244,2517008846,3.283199,3.876827,-34.770115,0.739386,-1.476017,-3.160552,-160.892044,-44.421795,102.964203
245,2517025513,0.862416,3.100734,-32.855930,1.860243,-2.045975,-2.693903,-150.769547,-43.553860,116.105988
246,2517042180,-1.301522,2.336828,-30.644094,3.807198,-2.778523,-2.759483,-134.665100,-47.494194,132.240173
247,2517058847,-3.270269,1.557310,-28.151907,6.514993,-3.443876,-2.061404,-121.739830,-53.825100,147.309204
248,2517075514,-5.156453,0.868085,-25.581244,9.412566,-5.543241,-0.485394,-114.973862,-53.670937,150.596466
249,2517092181,-6.210817,0.639578,-23.499186,10.111747,-10.992547,0.538958,-63.455517,-27.072031,122.783920
250,2517108848,-5.182244,0.943110,-22.441618,9.285769,-11.924675,0.202797,62.302799,10.818982,64.788315
251,2517125515,-2.703128,1.601237,-22.436731,8.379073,-7.069412,0.298165,150.236694,38.424259,2.858767
252,2517142182,0.666541,2.426293,-23.333143,6.149141,-6.402709,-0.778631,205.573746,49.547585,-53.019699
253,2517158849,5.018282,3.370843,-24.968010,5.483532,-6.871771,-0.548708,267.563873,50.879578,-100.836205
254,2517175516,9.858802,4.462976,-27.212366,5.958115,-5.220760,-0.635339,301.118134,46.749008,-141.916000
255,2517192183,14.722095,5.708948,-29.758619,6.133341,-3.870159,-0.960580,306.816132,39.846165,-164.837189
256,2517208850,19.165249,7.133350,-32.321823,6.504983,-2.263132,-0.980313,285.258087,36.432659,-171.362549
257,2517225517,22.857424,8.725201,-34.702003,5.731717,-1.381037,-0.999537,242.697388,37.685986,-166.554199
258,2517242184,25.841759,10.383253,-36.844154,3.920799,-1.490225,-1.738955,201.854553,37.631210,-156.777237
259,2517258851,28.197302,12.014131,-38.765144,2.738082,-1.457152,-1.853021,165.174683,35.073795,-145.478516
260,2517275518,30.054438,13.613423,-40.474602,1.905746,-1.631399,-2.061098,135.627457,34.417873,-134.384964
261,2517292185,31.683653,15.178273,-41.979843,1.173171,-1.547400,-1.991991,121.654251,34.985252,-123.587204
262,2517308852,33.316696,16.700911,-43.295460,0.457969,-1.035249,-2.110443,121.103310,35.546806,-113.443024
263,2517325519,34.875546,18.124928,-44.420921,-0.025532,-0.280921,-1.766469,115.178818,33.909142,-101.606125
264,2517342186,36.301273,19.421219,-45.320866,-0.587833,0.232470,-1.353534,104.356178,32.771240,-87.193420
265,2517358853,37.733112,20.597944,-45.981300,-1.090040,0.430085,-1.616495,100.905151,33.219719,-72.601540
266,2517375520,39.212605,21.728622,-46.401756,-0.679899,1.087911,-1.750910,99.311317,37.730015,-60.993515
267,2517392187,40.600155,22.835726,-46.552841,-0.056956,2.077454,-1.391350,88.122719,44.817375,-49.418427
268,2517408854,41.698120,23.939032,-46.395370,0.601537,2.264141,-1.368136,63.554222,54.784863,-37.401222
269,2517425521,42.506184,25.114227,-45.936916,0.023393,1.772217,-0.813227,38.486881,68.316048,-29.080299
270,2517442188,43.337532,26.306427,-45.244610,-0.828821,1.202452,0.170033,33.279751,77.081238,-21.680458
271,2517458855,44.395199,27.454380,-44.380356,-1.624011,1.836022,0.997855,41.437351,80.912819,-14.755391
272,2517475522,45.632694,28.520042,-43.312614,-1.102294,2.763259,0.157038,45.609341,84.405960,-5.596787
273,2517492189,46.964443,29.556149,-41.990982,-0.947161,3.123560,-0.041059,42.838997,92.250412,2.595192
274,2517508856,48.394547,30.538197,-40.454391,-1.664978,2.890834,0.081965,41.066078,97.841881,9.806925
275,2517525523,49.982540,31.436855,-38.793316,-2.167672,2.329057,0.857607,45.391315,99.055206,14.679809
276,2517542190,51.673382,32.242420,-37.076702,-2.108513,2.119285,1.049598,48.541889,97.500870,17.454985
277,2517558857,53.331959,32.983162,-35.315063,-1.633212,2.324850,0.799168,43.980579,96.817116,18.599020
278,2517575524,54.839649,33.674000,-33.520996,-1.556417,2.340308,0.722260,32.751019,96.271202,18.857399
279,2517592191,56.145000,34.310478,-31.735695,-1.732660,2.067761,0.952133,19.871922,93.923965,18.521521
280,2517608858,57.241005,34.883057,-30.000496,-1.803241,1.709225,0.898565,8.088187,89.583817,18.035852
281,2517625525,58.199047,35.413044,-28.308474,-1.796334,1.577025,1.117820,0.480360,86.252991,17.141428
282,2517642192,59.033573,35.916740,-26.653263,-1.882446,1.495096,0.995348,-6.385987,83.701363,15.921028
283,2517658859,59.776054,36.402687,-25.045528,-2.238599,1.413560,0.820698,-10.918702,80.954323,14.254073
284,2517675526,60.439907,36.898193,-23.496523,-2.592149,1.049134,0.661763,-14.196344,78.529732,11.107644
285,2517692193,61.080437,37.411282,-22.018543,-2.698508,0.745227,0.603907,-13.672885,75.771179,7.394419
286,2517708860,61.722855,37.928329,-20.620680,-2.800567,0.391525,0.715194,-11.253457,72.195671,4.285475
287,2517725527,62.324043,38.421024,-19.330389,-2.823536,0.103048,0.928389,-10.317849,66.670410,2.200333
288,2517742194,62.812817,38.866646,-18.166584,-2.808068,-0.063885,0.923737,-12.813792,59.773724,1.164849
289,2517758861,63.147346,39.249859,-17.131990,-2.636887,-0.294144,1.132541,-17.572870,52.433758,1.198130
290,2517775528,63.200111,39.550144,-16.232180,-2.519390,-0.495150,1.684835,-29.627401,44.406273,2.543949
291,2517792195,62.883400,39.768215,-15.501309,-2.844414,-0.793348,2.075901,-45.509708,35.066452,3.447772
292,2517808862,62.405663,39.892303,-15.032943,-3.705345,-1.347268,1.872408,-45.181728,21.631470,3.122082
293,2517825529,61.833569,39.919498,-14.827113,-4.052045,-1.368030,1.723617,-40.757504,8.176923,2.823081
294,2517842196,61.235378,39.834492,-14.850780,-4.398121,-1.166920,1.403932,-33.483570,-4.348401,3.818862
295,2517858863,60.650108,39.632141,-15.077489,-4.688981,-1.209846,1.133430,-24.916178,-16.005939,5.404892
296,2517875530,60.052494,39.334225,-15.484318,-4.605199,-1.110732,1.024446,-18.825790,-26.183846,6.106405
297,2517892197,59.415947,38.952038,-16.044933,-4.464830,-0.927736,0.999793,-15.441198,-35.063538,6.568271
298,2517908864,58.714638,38.483696,-16.727468,-4.169339,-0.712900,1.077012,-14.938270,-42.830788,7.606138
299,2517925531,57.963692,37.924286,-17.499979,-4.043419,-0.417422,0.872425,-14.859406,-49.604355,9.395158
300,2517942198,57.195038,37.271549,-18.342566,-4.013056,-0.096800,0.610130,-13.734197,-55.800243,11.543344
301,2517958865,56.419765,36.533390,-19.231741,-3.790892,0.230103,0.375524,-12.939285,-60.944393,13.679649
302,2517975532,55.671062,35.719875,-20.138048,-3.591190,0.491412,0.129014,-11.312337,-64.701256,15.940388
303,2517992199,54.972469,34.856247,-21.027369,-3.263908,0.549918,0.039119,-9.535731,-66.314629,17.828732
304,2518008866,54.317539,33.962330,-21.875477,-2.915474,0.528474,0.199265,-8.980671,-66.298347,19.457590
305,2518025533,53.734043,33.053284,-22.671314,-2.672902,0.414948,0.436896,-7.089023,-65.290436,20.768244
306,2518042200,53.210762,32.133343,-23.401102,-2.218693,0.446763,0.344422,-6.243464,-63.535809,22.418587
307,2518058867,52.585239,31.231361,-24.050123,-1.624279,0.833590,0.431474,-15.510073,-60.119823,23.203215
308,2518075534,51.626404,30.413935,-24.576807,-1.133297,1.238186,0.707520,-39.765347,-52.591774,22.069202
309,2518092201,50.396599,29.670765,-24.978718,-1.164084,0.838347,1.234471,-60.144371,-45.341351,21.559193
310,2518108868,49.115459,28.970825,-25.255085,-1.629217,0.039846,1.155095,-67.177292,-39.238068,22.750093
311,2518125535,47.959957,28.285742,-25.407450,-1.639870,0.096219,0.689528,-63.376575,-34.307522,25.530157
312,2518142202,47.040062,27.578384,-25.385620,-1.705341,0.402255,-0.253301,-54.231514,-28.905607,32.115543
313,2518158869,46.504002,26.852024,-25.150787,-1.456821,0.463859,-0.775681,-37.029797,-21.813822,40.380692
314,2518175536,46.328617,26.113649,-24.688004,-1.358780,0.118423,-0.529350,-21.329899,-13.641062,49.273060
315,2518192203,46.481686,25.341173,-24.028309,-1.063770,-0.198269,-0.239665,-6.422924,-7.243014,58.205200
316,2518208870,46.872120,24.537025,-23.182457,-0.618891,-0.145156,-0.500484,3.600389,-0.736556,66.727783
317,2518225537,47.373268,23.701385,-22.161341,-0.380730,-0.060581,-0.649179,6.607344,5.746343,74.843834
318,2518242204,47.894970,22.825190,-20.966869,-0.227472,0.176203,-1.107702,4.564854,12.104524,83.265266
319,2518258871,48.387737,21.901030,-19.586367,0.296470,0.274570,-1.316319,-0.382576,18.928358,92.465637
320,2518275538,48.844532,20.892748,-18.023582,0.849564,-0.025595,-1.110196,-5.245087,24.387543,103.159386
321,2518292205,49.371189,19.743792,-16.313244,1.486424,-0.317050,-1.159331,-2.483363,26.494913,115.157959
322,2518308872,49.952549,18.415312,-14.463235,2.241340,-0.059779,-1.516346,0.139092,27.244858,128.700836
323,2518325539,50.449501,16.952175,-12.459724,2.791967,0.082178,-2.459598,-5.165025,30.683832,140.788223
324,2518342206,50.953773,15.387537,-10.280948,4.245146,-0.107908,-3.081731,-4.627308,36.593895,152.190384
325,2518358873,51.490875,13.737620,-7.945620,6.220164,-0.098620,-3.221190,-1.490499,42.620285,162.111908
326,2518375540,52.086048,12.040915,-5.486272,8.561513,-0.353950,-3.431116,4.297338,48.965523,168.944550
327,2518392207,52.831493,10.422317,-3.053264,10.330171,-0.279069,-3.342745,17.789106,53.287884,164.196533
328,2518408874,53.766708,9.039270,-0.811221,10.256060,-0.119119,-3.487260,34.867012,55.670864,145.687988
329,2518425541,55.022217,8.064069,0.979741,8.782220,-0.989174,-3.676966,60.844509,51.305706,109.318573
330,2518442208,56.715820,7.610507,2.042021,6.396950,-2.077832,-3.856113,94.430275,35.995529,57.809616
331,2518458875,58.811947,7.674576,2.219548,4.462544,-2.300653,-3.747604,125.869720,9.993249,2.211096
332,2518475542,61.224380,8.152937,1.525987,3.825188,-1.672036,-3.366760,152.002670,-22.336832,-45.646191
333,2518492209,63.840878,8.955294,0.128587,4.422819,-0.844222,-2.837160,170.988144,-52.334339,-81.164604
334,2518508876,66.515656,10.017660,-1.719476,5.835506,-0.303126,-2.302699,180.281372,-73.470284,-103.992889
335,2518525543,68.978401,11.258123,-3.766074,6.058799,-0.193631,-1.457444,171.948242,-84.473145,-114.844398
336,2518542210,71.093269,12.563276,-5.816283,5.440897,-0.169210,-0.687246,153.793335,-87.343712,-114.982262
337,2518558877,72.795074,13.882472,-7.740599,4.613354,-0.205159,-0.171335,130.031647,-83.278748,-110.401756
338,2518575544,73.975975,15.230910,-9.469087,3.706773,-0.431552,0.425239,98.430092,-73.999519,-106.563858
339,2518592211,74.493546,16.634657,-10.983281,2.794878,-0.449506,0.921325,57.504612,-62.126602,-105.141777
340,2518608878,74.220085,18.086319,-12.294748,1.925988,-0.526250,1.248864,8.581884,-49.765720,-104.487755
341,2518625545,73.225082,19.555115,-13.460375,1.359931,-0.669864,0.938398,-35.628147,-39.771080,-103.523117
342,2518642212,71.724785,20.974194,-14.527574,1.057518,-0.805255,0.879926,-66.331169,-32.561714,-99.660080
343,2518658879,69.976395,22.276291,-15.513817,0.542657,-0.302613,0.584955,-81.586830,-27.251518,-92.231239
344,2518675546,68.246803,23.375465,-16.429707,0.295972,0.470151,0.012157,-80.956703,-24.709661,-80.057861
345,2518692213,66.642075,24.234768,-17.282766,-0.020413,0.907540,-0.329976,-74.132431,-24.367859,-65.957176
346,2518708880,65.264069,24.852705,-18.116842,-0.825832,0.562329,-0.364828,-60.407642,-27.358540,-52.785599
347,2518725547,64.342514,25.240625,-18.973211,-1.372144,0.380673,-0.661944,-32.063206,-33.105770,-41.248825
348,2518742214,63.877472,25.434502,-19.862110,-1.330878,0.666203,-0.570086,-3.604046,-39.181622,-31.876968
349,2518758881,63.704361,25.460140,-20.751566,-1.443604,0.903462,-0.236240,14.011843,-43.452648,-23.019382
350,2518775548,63.760487,25.340239,-21.588490,-1.305242,1.122438,-0.555031,26.368393,-44.765621,-13.975697
351,2518792215,63.962952,25.093401,-22.324459,-0.991277,1.322052,-0.656536,32.417217,-43.298737,-4.649764
352,2518808882,64.225044,24.706909,-22.945435,-0.672166,1.245222,-0.138921,32.862289,-41.446465,5.753854
353,2518825549,64.445618,24.148817,-23.477222,-0.714648,0.741918,0.421541,27.874472,-41.611336,17.261427
354,2518842216,64.567581,23.448807,-23.935074,-0.665296,0.746963,0.053834,19.845882,-41.692551,26.758696
355,2518858883,64.520744,22.668127,-24.270857,-0.293018,1.374218,-0.473034,6.519921,-37.801804,33.995007
356,2518875550,64.154297,21.854416,-24.415976,0.004018,1.309338,-0.056173,-17.255211,-29.340229,40.190670
357,2518892217,63.512180,21.003969,-24.395046,-0.125593,0.426625,0.941257,-37.556473,-22.388826,45.988476
358,2518908884,62.856510,20.123100,-24.227753,-0.219458,0.125667,1.056136,-41.437553,-16.390690,51.085953
359,2518925551,62.241150,19.221764,-23.933262,-0.657575,-0.285738,0.870450,-41.440380,-11.101357,55.342625
360,2518942218,61.785408,18.311522,-23.558088,-1.516351,-0.663973,0.249209,-33.155056,-7.740357,57.915352
361,2518958885,61.595554,17.465849,-23.179001,-1.581754,-0.778668,0.546486,-16.941925,-5.938066,54.629642
362,2518975552,61.809708,16.663271,-22.745077,-1.593205,-0.476740,0.580163,6.651540,-1.846746,53.896618
363,2518992219,62.507248,15.906867,-22.219692,-1.427844,-0.048711,0.624238,34.459351,4.624524,53.968185
364,2519008886,63.597427,15.212869,-21.600256,-1.518092,-0.332957,0.996197,56.891048,12.106651,53.055805
365,2519025553,64.969162,14.621221,-20.898590,-1.969303,-0.421565,0.805663,72.921028,20.302971,49.352978
366,2519042220,66.533989,14.173994,-20.130239,-2.061935,-0.142193,0.567302,83.886269,28.742672,42.529819
367,2519058887,68.123962,13.907105,-19.286800,-2.224316,0.091339,0.483714,84.585434,38.172710,33.432178
368,2519075554,69.536255,13.829958,-18.384150,-2.603302,-0.117408,0.852604,73.226257,46.398750,23.047262
369,2519092221,70.713104,13.923491,-17.451891,-3.206666,-0.473556,1.238955,58.669651,52.008064,12.937703
370,2519108888,71.685005,14.152451,-16.517883,-3.850913,-0.732648,1.309170,46.202049,54.922039,4.285780
371,2519125555,72.495544,14.485438,-15.620973,-4.584316,-0.752247,1.290251,36.812080,54.783142,-3.190611
372,2519142222,73.172600,14.896303,-14.814272,-5.298985,-0.583124,0.953936,29.847080,51.028461,-9.928940
373,2519158889,73.730850,15.395667,-14.123390,-5.710362,-0.302061,0.725059,24.170517,45.905128,-17.493093
374,2519175556,74.124489,16.014631,-13.552752,-5.917784,-0.291048,0.684651,15.861470,40.965992,-26.703436
375,2519192223,74.347359,16.764835,-13.125862,-6.072899,-0.173781,0.881257,7.661963,34.884121,-36.759598
376,2519208890,74.425339,17.636150,-12.862606,-5.705755,0.020022,1.462631,1.529856,27.606310,-46.376148
377,2519225557,74.363899,18.617594,-12.778236,-5.539161,0.023921,1.566550,-3.736182,19.474974,-55.483227
378,2519242224,74.221146,19.700775,-12.907519,-5.421881,-0.068573,1.464500,-4.493483,9.537345,-64.584717
379,2519258891,74.021805,20.874840,-13.263004,-4.839787,0.205055,1.577335,-3.032127,-0.975888,-73.241913
380,2519275558,73.717171,22.114862,-13.822009,-4.443288,-0.089808,1.739386,-4.453985,-10.318993,-80.134010
381,2519292225,73.356728,23.390301,-14.551082,-4.157087,-0.321162,1.977901,-3.170744,-18.010176,-84.793678
382,2519308892,72.915779,24.666977,-15.371691,-3.507197,0.061642,2.200418,-4.864064,-21.826738,-86.307396
383,2519325559,72.398773,25.884405,-16.165928,-2.692312,0.448831,2.460797,-9.124912,-20.371416,-82.511787
384,2519342226,71.810844,26.988600,-16.875891,-2.126777,0.221252,2.558110,-14.762940,-16.953487,-74.697662
385,2519358893,71.296516,27.947222,-17.528046,-1.997856,-0.534326,2.325787,-11.260924,-15.750290,-65.471062
386,2519375560,70.980278,28.763409,-18.158911,-1.616374,-0.820492,2.025242,0.557896,-16.705603,-57.026691
387,2519392227,71.006180,29.453074,-18.762754,-1.315833,-0.509775,1.370645,20.734922,-17.463484,-49.345760
388,2519408894,71.450928,30.047598,-19.304884,-0.892146,-0.091263,0.968198,44.386974,-16.266102,-42.769775
389,2519425561,72.421684,30.545334,-19.757231,-0.685658,0.246787,0.844760,73.497551,-14.020054,-35.565773
390,2519442228,73.940994,30.928091,-20.097961,-0.252873,0.023421,1.243294,103.166588,-11.169600,-26.974432
391,2519458895,75.846199,31.199923,-20.348284,-0.798565,0.100286,1.173999,123.623817,-9.157741,-19.007267
392,2519475562,78.019135,31.393478,-20.519262,-1.046573,-0.215701,1.299006,137.263763,-6.887820,-13.201082
393,2519492229,80.326782,31.537643,-20.554522,-0.859466,-0.040163,1.259093,141.125076,-1.113245,-8.740373
394,2519508896,82.770622,31.592415,-20.404186,-0.459872,-0.083227,1.393038,143.468872,7.131318,-2.024985
395,2519525563,85.422241,31.441431,-20.055519,-0.208494,-0.409737,1.130656,149.719925,15.866821,10.940912
396,2519542230,88.148758,31.006809,-19.488688,-0.092673,-0.234208,0.261607,147.519699,26.642714,27.758965
397,2519558897,90.755463,30.262978,-18.620874,-0.584409,1.226952,-1.803840,131.421112,43.454033,45.144562
398,2519575564,92.826088,29.280264,-17.351070,0.421093,1.195974,-2.950977,87.953239,67.021851,56.955307
399,2519592231,94.205597,28.165388,-15.695894,1.462145,0.521073,-3.564917,36.580372,90.103210,61.508518
400,2519608898,95.181137,26.853752,-13.666694,3.053569,-0.267753,-4.534252,3.822862,113.134117,69.672531
401,2519625565,96.036453,25.261545,-11.379682,4.920835,-0.676618,-6.048051,-7.442813,131.085861,83.083290
402,2519642232,97.019707,23.330233,-9.004992,6.891723,0.446159,-7.732603,1.878948,141.253311,100.394768
403,2519658899,98.175293,21.178392,-6.582308,10.102261,2.810413,-8.938062,15.773468,149.475540,110.189697
404,2519675566,99.390747,19.059956,-4.251051,13.227634,3.002286,-7.548880,26.285130,148.246460,105.520073
405,2519692233,100.510880,17.374563,-2.353961,13.124974,-0.182925,-5.703619,33.086552,122.984154,80.830460
406,2519708900,101.913467,16.603163,-1.308106,10.353659,-3.755649,-7.057518,67.292023,66.873077,33.594849
407,2519725567,103.414703,16.944679,-1.352202,7.966654,-3.551554,-6.164941,92.328972,-7.963291,-19.620319
408,2519742234,104.687119,18.165966,-2.396305,6.270812,-0.092040,-4.482656,96.742607,-76.739113,-56.801479
409,2519758901,105.463692,19.795370,-4.104162,5.592888,1.067381,-2.624354,81.422806,-120.007301,-69.437958
410,2519775568,105.601936,21.445591,-6.158719,5.878027,0.314069,-0.749884,53.203545,-138.692902,-64.763382
411,2519792235,105.108612,22.875433,-8.225447,5.596820,-0.322149,-0.156108,18.670139,-134.494904,-52.605629
412,2519808902,104.020287,24.057211,-10.091262,4.328918,-0.025945,-0.320378,-19.227205,-118.261063,-43.122360
413,2519825569,102.439537,25.008816,-11.743673,2.875005,0.567176,-0.823967,-52.192879,-101.910423,-35.279484
414,2519842236,100.514076,25.742140,-13.225051,1.932138,0.682165,-1.312638,-75.960243,-88.501251,-27.495417
415,2519858903,98.457954,26.278576,-14.606903,0.524146,0.206455,-1.364469,-85.543846,-79.843735,-19.829683
416,2519875570,96.487801,26.583710,-15.974189,0.064064,0.366839,-0.967763,-80.234047,-76.257683,-8.964527
417,2519892237,94.718712,26.664862,-17.236885,0.625160,1.024943,-0.716922,-70.743584,-68.913773,1.400442
418,2519908904,93.089035,26.534182,-18.332010,0.669791,0.974487,-0.150466,-66.919182,-59.116333,11.455189
419,2519925571,91.640450,26.214132,-19.317009,0.142227,0.283967,0.604944,-59.226818,-53.142624,21.002510
420,2519942238,90.582909,25.706432,-20.279673,-0.344875,-0.485088,1.088596,-36.741703,-52.360229,31.095530
421,2519958905,89.960495,25.034378,-21.251301,-0.720237,-0.359030,1.422292,-10.940515,-53.508102,40.205849
422,2519975572,89.734337,24.264349,-22.168396,-1.007520,0.587236,1.115959,10.803946,-51.159946,45.705326
423,2519992239,89.799553,23.506311,-22.916237,-1.013833,0.982265,0.808608,23.502449,-42.236691,44.960663
424,2520008906,90.044991,22.844067,-23.422768,-1.196369,0.859225,0.830819,28.100155,-29.021460,39.352066
425,2520025573,90.459953,22.250816,-23.713362,-1.791622,0.767687,1.281009,32.996887,-16.974257,35.330788
426,2520042240,90.871429,21.652266,-23.868666,-2.196460,0.402088,1.981228,29.582834,-9.253878,35.688854
427,2520058907,91.164467,21.046310,-23.896290,-1.939797,0.337779,1.924703,19.600266,-1.929429,36.070660
428,2520075574,91.244003,20.476454,-23.772917,-1.358705,0.460107,1.557628,3.564771,6.611914,33.741787
429,2520092241,91.095238,19.981199,-23.513426,-1.027333,0.461967,1.242332,-12.891604,14.186491,29.124992
430,2520108908,90.856232,19.555155,-23.186401,-1.237424,0.196947,1.427072,-19.557230,17.872631,24.967213
431,2520125575,90.650208,19.159388,-22.858778,-1.521334,-0.109357,1.646868,-17.454960,17.833471,23.231741
432,2520142242,90.560890,18.783451,-22.575998,-1.458294,-0.345992,1.479547,-9.451062,15.261057,22.126497
433,2520158909,90.588127,18.464062,-22.335619,-1.204139,-0.067386,1.013053,-1.542617,12.841097,18.775482
434,2520175576,90.673973,18.234383,-22.104847,-0.786324,0.385059,0.642993,2.221117,12.275177,13.393558
435,2520192243,90.811333,18.073137,-21.868982,-0.653652,0.414706,0.700851,5.264055,12.553654,9.264584
436,2520208910,90.997040,17.942759,-21.649603,-0.843055,-0.132808,1.108771,8.502368,11.622434,7.395860
437,2520225577,91.244148,17.826488,-21.469065,-1.224613,-0.186000,0.955360,12.934318,9.426347,6.550884
438,2520242244,91.482643,17.750811,-21.298956,-0.978498,0.227719,0.812493,12.626490,8.808337,4.092561
439,2520258911,91.617104,17.723846,-21.110029,-1.018570,0.541442,0.485802,6.051432,9.820995,1.116772
440,2520275578,91.683563,17.711309,-20.909578,-1.389561,0.560082,0.445408,1.763762,10.457944,0.219968
441,2520292245,91.707962,17.647539,-20.757698,-1.834694,0.275944,0.727835,0.133577,7.774577,3.372713
442,2520308912,91.626137,17.493067,-20.729450,-2.254078,-0.419868,1.325265,-3.984453,0.870364,9.030585
443,2520325579,91.367035,17.271198,-20.855293,-2.616903,-0.730732,1.579269,-11.849615,-7.868308,13.317334
444,2520342246,90.900627,17.018793,-21.126318,-2.853822,-0.495653,1.557251,-21.743721,-16.245512,15.278790
445,2520358913,90.195679,16.764427,-21.542618,-3.277063,-0.160649,1.507450,-33.589687,-24.760658,15.328287
446,2520375580,89.256203,16.510382,-22.134119,-4.035355,-0.346890,1.572989,-44.753777,-35.081913,14.928156
447,2520392247,88.154869,16.254080,-22.944138,-4.705492,-0.661314,1.480564,-50.914654,-47.967651,14.180513
448,2520408914,86.977692,16.015564,-23.990084,-4.963408,-0.516519,1.450034,-51.724369,-61.843014,11.609234
449,2520425581,85.738335,15.797773,-25.235723,-4.722304,0.093310,1.478614,-52.406425,-73.563858,8.357443
450,2520442248,84.346565,15.604455,-26.619078,-4.370377,0.519328,1.861487,-59.567051,-81.611084,4.543236
451,2520458915,82.690987,15.448059,-28.100954,-4.263932,0.429019,2.221378,-74.053703,-87.184174,-0.444426
452,2520475582,80.740494,15.335086,-29.687691,-3.990062,0.228248,2.682065,-90.274490,-92.813873,-6.609083
453,2520492249,78.487663,15.260868,-31.370775,-3.499855,0.485723,2.601544,-107.030930,-97.623741,-13.264896
454,2520508916,75.896599,15.229340,-33.115410,-2.920775,0.998392,2.081443,-126.440109,-99.915916,-20.625996
455,2520525583,72.976738,15.250997,-34.884171,-2.544874,1.337747,1.608166,-145.791763,-99.309364,-28.803379
456,2520542250,69.852402,15.293987,-36.669834,-2.253357,1.235829,1.482958,-157.734848,-98.170113,-35.465279
457,2520558917,66.737846,15.305110,-38.464981,-1.965388,0.994109,1.434717,-156.946548,-97.310204,-39.120895
458,2520575584,63.860439,15.204222,-40.271580,-1.923397,0.625301,1.685621,-142.619690,-98.571495,-38.281204
459,2520592251,61.417309,14.897435,-42.115131,-1.932956,0.581958,1.462229,-116.361496,-104.359604,-32.824696
460,2520608918,59.369274,14.409348,-43.969067,-1.093217,1.918875,-0.102857,-93.237480,-109.069870,-27.789782
461,2520625585,57.399422,13.796772,-45.693962,-0.237674,2.324019,-0.581661,-91.473633,-105.779503,-21.403418
462,2520642252,55.394753,13.143523,-47.295868,-0.708972,2.204727,-0.385988,-96.393990,-100.580223,-19.171751
463,2520658919,53.482632,12.421189,-48.771286,-0.823206,1.881254,0.267600,-93.648064,-96.479164,-15.041031
464,2520675586,51.708187,11.581936,-50.101498,-0.475659,1.968912,-0.065198,-88.380524,-93.646675,-7.512055
465,2520692253,49.979717,10.659093,-51.240452,0.328565,1.986552,-0.749632,-89.040161,-88.007225,0.501428
466,2520708920,48.148125,9.731132,-52.169838,0.342512,1.934595,-1.284410,-98.540985,-78.994499,6.003180
467,2520725587,46.205692,8.835758,-52.914970,0.177318,1.727494,-1.134274,-107.854691,-69.932594,9.312358
468,2520742254,44.145622,7.966513,-53.498230,-0.007464,1.588573,-0.634638,-117.014091,-62.380226,12.482804
469,2520758921,42.001011,7.083838,-53.928703,-0.154870,1.474329,-0.355799,-123.820801,-57.232544,17.358862
470,2520775588,39.832726,6.161907,-54.179146,0.071148,1.337253,-0.782796,-126.893593,-52.635479,24.844112
471,2520792255,37.683525,5.243440,-54.221375,0.226987,0.983707,-1.416179,-127.231956,-45.610546,32.425968
472,2520808922,35.597229,4.386309,-54.045918,0.094468,0.702118,-1.973567,-124.594894,-36.067593,38.994797
473,2520825589,33.668491,3.589074,-53.673775,-0.443468,0.814381,-1.989841,-115.813454,-27.760365,45.395279
474,2520842256,31.896082,2.754008,-53.099255,-0.472813,1.141211,-1.661430,-106.789299,-24.550480,55.944721
475,2520858923,30.276873,1.812523,-52.303696,-0.360851,0.643863,-1.614913,-97.593407,-24.812132,69.890312
476,2520875590,28.910269,0.827294,-51.269295,-0.556638,-0.254267,-2.777186,-81.965950,-21.820107,83.022064
477,2520892257,27.728590,-0.121196,-49.987766,-0.238833,-0.895421,-3.910347,-69.915497,-14.683872,94.554253
478,2520908924,26.547676,-0.975854,-48.441162,0.833179,-1.603527,-4.107723,-68.506638,-4.362734,105.839287
479,2520925591,25.256445,-1.695002,-46.602863,2.053336,-2.316809,-3.895927,-73.442917,8.301969,117.904503
480,2520942258,23.847038,-2.263205,-44.435074,3.853163,-3.500216,-3.063250,-78.610161,21.957003,132.266693
481,2520958925,22.527300,-2.622257,-42.038216,5.593434,-4.508041,-2.690692,-71.593857,35.732307,140.418442
482,2520975592,21.440989,-2.710124,-39.559872,7.343483,-5.486630,-2.195814,-56.803448,49.687279,139.565048
483,2520992259,20.822948,-2.462206,-37.230118,6.948241,-6.700913,-2.332118,-29.323399,63.200069,124.741074
484,2521008926,21.027042,-1.967046,-35.324604,5.280005,-8.232973,-2.500167,18.111134,67.548187,95.945992
485,2521025593,22.201046,-1.323530,-34.058533,3.571282,-8.609148,-2.903681,74.071480,62.872780,56.206779
486,2521042260,24.214975,-0.643646,-33.547863,2.183857,-7.238401,-3.068371,122.819107,48.587345,11.921228
487,2521058927,26.993238,-0.083552,-33.816517,1.143003,-5.872056,-3.241200,168.058823,22.368107,-29.230276
488,2521075594,30.441191,0.322757,-34.817738,1.052850,-5.193083,-2.663701,208.466965,-8.455290,-64.576859
489,2521092261,34.128914,0.632202,-36.430313,2.114076,-4.648770,-0.827488,223.528778,-36.954124,-91.898079
490,2521108928,37.616920,0.950301,-38.488300,3.264769,-4.459465,-0.275615,212.438522,-57.857071,-111.427597
491,2521125595,40.689232,1.393265,-40.755684,4.695194,-3.616585,-0.640702,188.570953,-66.236305,-122.454514
492,2521142262,43.186714,1.999853,-42.984329,5.564221,-2.834396,-0.232984,155.257812,-63.214844,-123.948769
493,2521158929,44.832741,2.709498,-45.018700,4.939694,-2.425443,0.534429,105.231918,-55.065125,-117.500336
494,2521175596,45.671597,3.416401,-46.866627,2.917320,-2.211825,0.548278,57.712620,-49.722019,-108.271645
495,2521192263,45.924416,4.071463,-48.568340,1.221031,-1.970205,0.319851,23.294727,-46.585140,-99.418648
496,2521208930,45.842533,4.683420,-50.123180,0.628469,-1.497124,-0.394963,3.664021,-42.165295,-91.321335
497,2521225597,45.697361,5.259551,-51.482933,0.566289,-1.124053,-0.947344,-0.185044,-35.071587,-81.673981
498,2521242264,45.721081,5.764398,-52.637890,0.084164,-0.485069,-0.813326,9.531225,-29.166830,-70.058784
499,2521258931,46.058670,6.176626,-53.555943,-0.365442,-0.006669,-0.781500,27.434635,-23.064558,-56.100658
500,2521275598,46.813030,6.496517,-54.231609,-0.172484,0.313888,-1.081010,51.185158,-16.914711,-41.884674
501,2521292265,47.935020,6.748526,-54.663673,0.100829,0.567136,-1.111445,71.756493,-9.658102,-28.774088
502,2521308932,49.337986,6.982234,-54.866676,0.540355,0.725773,-0.817481,87.079102,-0.762511,-18.725315
503,2521325599,50.866302,7.233168,-54.855843,0.627532,1.168033,-0.131758,93.062561,9.195278,-11.346845
504,2521342266,52.423096,7.468349,-54.677311,0.588334,1.620721,0.580072,93.481369,16.127085,-4.682907
505,2521358933,53.840134,7.681609,-54.361877,0.973849,1.427392,0.693325,83.967484,21.723726,0.810375
506,2521375600,55.035713,7.928685,-53.916943,1.052316,1.138433,0.541953,69.549034,29.170956,3.114086
507,2521392267,56.059807,8.243361,-53.354317,0.798642,1.223315,0.746176,58.135326,37.269970,3.130456
508,2521408934,56.973080,8.610680,-52.670254,0.676243,1.737185,0.877761,50.219223,45.046989,3.809777
509,2521425601,57.790340,8.999393,-51.861237,0.565895,2.159220,0.964622,43.040257,51.999596,6.006282
510,2521442268,58.542187,9.418154,-50.932140,0.579904,2.035985,0.552042,37.624786,59.022205,7.473602
511,2521458935,59.338036,9.899777,-49.898174,-0.002011,1.617111,0.090456,38.773911,66.318588,6.598654
512,2521475602,60.408257,10.425987,-48.787575,-0.512304,1.425407,-0.514561,53.885963,71.594734,5.412649
513,2521492269,61.818130,10.964330,-47.597023,-0.567419,1.757714,-0.362286,72.764999,76.076584,5.428478
514,2521508936,63.482906,11.491897,-46.302441,-0.617316,2.163943,-0.450095,86.191658,81.222923,6.688428
515,2521525603,65.319420,12.002593,-44.895374,-0.667926,2.501382,-0.455236,94.429466,86.789520,7.883836
516,2521542270,67.223602,12.471813,-43.413219,-1.349319,2.433035,-0.707398,96.827278,89.896149,9.008178
517,2521558937,69.148376,12.848285,-41.937901,-2.110961,1.893983,-0.681767,97.512077,87.579353,10.934647
518,2521575604,71.070122,13.136962,-40.526711,-2.390483,1.255132,-0.421539,97.693199,82.474274,11.596919
519,2521592271,72.896568,13.363977,-39.167107,-2.261872,1.227531,-0.072208,92.319817,78.718834,11.423471
520,2521608938,74.549820,13.556940,-37.834427,-1.863566,1.357784,0.517247,82.015022,76.889740,10.503413
521,2521625605,75.984772,13.698928,-36.517101,-1.695115,1.154282,1.232685,68.906158,75.447556,11.119495
522,2521642272,77.284988,13.791038,-35.228245,-1.938866,0.563589,1.699634,61.073784,73.351433,11.813455
523,2521658939,78.537201,13.842838,-34.009098,-2.260707,0.203095,1.721801,59.099762,69.098503,11.666552
524,2521675606,79.748489,13.887879,-32.915047,-2.557859,-0.076237,1.955095,58.385017,62.089325,9.182795
525,2521692273,80.913315,13.942558,-31.990875,-3.218442,-0.455689,2.421015,57.996456,52.599159,5.641941
526,2521708940,82.079582,14.008292,-31.268251,-3.678975,-0.760147,3.144012,60.949051,41.186069,2.160684
527,2521725607,83.246033,14.098117,-30.767307,-4.039881,-0.768857,3.352566,64.135551,28.601490,-1.777629
528,2521742274,84.292351,14.232244,-30.484264,-4.286866,-0.864334,3.630494,60.075867,16.234112,-6.364294
529,2521758941,85.100555,14.432219,-30.453957,-4.785294,-0.743851,3.750716,49.496498,1.860082,-11.930721
530,2521775608,85.539268,14.696822,-30.680393,-4.921113,-0.482193,3.778102,31.198368,-12.812806,-17.036732
531,2521792275,85.422592,15.008428,-31.114767,-4.997968,-0.122491,3.363487,1.143758,-24.642927,-20.757708
532,2521808942,84.598213,15.395773,-31.729948,-4.955403,-0.113234,3.221734,-38.316578,-34.463612,-26.379471
533,2521825609,83.036201,15.830729,-32.510628,-4.965674,-0.275136,3.261054,-79.641449,-43.041683,-30.928165
534,2521842276,80.824806,16.243839,-33.409142,-4.606808,-0.348802,3.402309,-116.311005,-48.825390,-31.932526
535,2521858943,78.113762,16.553066,-34.342209,-4.220309,-0.152078,2.968731,-145.373825,-50.417637,-28.171331
536,2521875610,75.018135,16.722273,-35.265202,-3.844945,0.354878,2.275152,-168.394272,-50.255939,-22.311708
537,2521892277,71.666283,16.744154,-36.149540,-3.518913,0.678974,1.567604,-184.345642,-49.312881,-15.928879
538,2521908944,68.156998,16.623243,-36.979706,-3.328455,0.809720,1.231816,-194.764038,-48.316368,-9.675601
539,2521925611,64.651138,16.335306,-37.772430,-3.241755,0.769118,1.111293,-195.366638,-49.727711,-2.520907
540,2521942278,61.249817,15.861505,-38.520515,-3.018915,0.748194,1.253084,-190.136627,-52.357220,5.614856
541,2521958945,58.011726,15.183653,-39.206169,-2.841655,0.984679,1.007585,-181.778412,-55.788197,14.960623
542,2521975612,54.946815,14.296826,-39.794422,-2.323282,1.517162,0.590614,-173.414154,-58.869019,25.425163
543,2521992279,51.942078,13.265960,-40.209671,-1.625175,1.818340,-0.075915,-172.847977,-57.311749,35.189064
544,2522008946,48.857468,12.166663,-40.395084,-1.128309,1.801316,-0.036516,-181.125397,-51.447853,43.820011
545,2522025613,45.657303,11.023713,-40.328609,-0.943308,1.754167,0.168030,-191.311127,-44.721935,52.935173
546,2522042280,42.430775,9.849281,-39.993843,-0.945996,1.826834,0.496529,-195.728577,-37.972210,63.107521
547,2522058947,39.184521,8.624290,-39.382225,-0.951648,1.830747,0.759601,-199.163177,-33.023479,75.364563
548,2522075614,36.069012,7.317841,-38.526211,-1.697149,1.858065,-0.531891,-192.551498,-32.094944,88.058792
549,2522092281,33.088039,6.014480,-37.395954,-1.319775,1.628046,-3.523307,-185.229507,-27.231016,99.755371
550,2522108948,29.976126,4.815314,-35.986050,-0.003844,1.389169,-4.040967,-193.196686,-18.358385,109.325714
551,2522125615,26.534962,3.783611,-34.312748,0.244688,1.313452,-4.314237,-212.495926,-8.209592,117.407265
552,2522142282,22.865789,2.881615,-32.299656,0.587536,0.646780,-3.858515,-225.667603,0.136427,132.075653
553,2522158949,19.094490,2.066279,-29.942282,1.455209,-0.078585,-3.353347,-230.875671,3.835955,149.372635
554,2522175616,15.375140,1.316926,-27.253918,2.655126,-0.500921,-3.305587,-226.411301,3.745206,167.220825
555,2522192283,11.744788,0.605017,-24.252087,4.731399,-0.942244,-3.237830,-219.327530,-0.381702,184.980759
556,2522208950,8.164231,-0.007049,-21.004583,7.069962,-1.421138,-2.874723,-214.334137,-3.564822,198.157440
557,2522225617,4.749237,-0.428949,-17.657642,9.594790,-1.869311,-2.507543,-202.626038,-3.640438,202.268402
558,2522242284,1.741410,-0.507550,-14.468592,10.576973,-2.918698,-1.879814,-177.413818,5.064448,191.167358
559,2522258951,-0.270584,-0.237211,-11.801994,9.515748,-4.820510,-2.155954,-118.214417,17.227001,159.622940
560,2522275618,-0.202172,0.280380,-9.898368,7.781138,-7.648040,-3.164472,5.506534,29.553967,114.190308
561,2522292285,2.220335,0.909768,-8.852691,6.198309,-7.371851,-4.107076,146.146072,37.850967,61.915066
562,2522308952,6.140219,1.440965,-8.806708,3.428060,-5.375496,-4.428949,236.596878,30.992868,0.279484
563,2522325619,11.272596,1.782501,-9.699994,1.973098,-5.928243,-5.150551,310.911255,11.156103,-56.228008
564,2522342286,17.563402,2.015464,-11.457860,2.448950,-4.412514,-5.135587,382.388794,-13.704620,-105.774666
565,2522358953,24.302002,2.281677,-13.891835,3.666098,-1.299313,-4.274667,411.211426,-38.226200,-142.249695
566,2522375620,30.991222,2.710186,-16.603876,5.069660,0.861113,-3.228650,409.842590,-53.668213,-156.188049
567,2522392287,37.203739,3.401946,-19.262873,5.899694,2.298403,-1.926306,382.660767,-55.941544,-155.437073
568,2522408954,42.738113,4.357456,-21.625864,5.842991,2.602277,-0.746958,343.066132,-47.919548,-145.470276
569,2522425621,47.386204,5.493108,-23.592896,4.670807,2.102408,0.024819,290.440704,-36.085869,-131.520706
570,2522442288,51.151737,6.722546,-25.236145,3.135629,1.028023,-0.058737,237.848831,-27.128019,-120.092896
571,2522458955,54.074738,7.998460,-26.668154,2.266564,0.086900,0.130548,187.817017,-22.190409,-112.790169
572,2522475622,56.436024,9.295318,-28.014267,1.484764,-0.740537,-0.112389,155.248611,-22.234411,-109.669189
573,2522492289,58.481895,10.556974,-29.319191,0.816158,-0.784681,0.051394,137.682449,-25.268675,-105.527412
574,2522508956,60.269360,11.720491,-30.578760,0.359440,-0.122737,0.266718,123.277840,-29.215698,-98.076172
575,2522525623,61.829659,12.730418,-31.744791,0.212172,0.466884,0.120280,109.866928,-31.472610,-86.350311
576,2522542290,63.211830,13.632550,-32.748772,0.690545,0.437021,-0.148447,98.100571,-28.035702,-75.315475
577,2522558957,64.435661,14.508085,-33.547085,0.730600,0.322445,-0.167818,86.506813,-19.500137,-67.871941
578,2522575624,65.524925,15.378869,-34.144165,0.234153,0.448581,0.259913,76.023842,-10.246150,-62.215782
579,2522592291,66.513718,16.212601,-34.551765,-0.297287,0.942243,0.254914,67.413383,-2.148298,-55.503601
580,2522608958,67.422272,16.997192,-34.785759,-0.432334,1.209664,0.046276,59.954239,5.053025,-48.819786
581,2522625625,68.257553,17.756931,-34.839405,-0.293737,1.192339,-0.205238,52.506084,13.363249,-43.607014
582,2522642292,69.083786,18.507238,-34.722908,-0.416521,0.775590,-0.082178,48.825348,21.573446,-39.749035
583,2522658959,69.957329,19.237289,-34.466503,-0.673721,0.607120,0.290368,48.862545,27.968697,-36.170555
584,2522675626,70.879333,19.905867,-34.099304,-0.762071,0.771583,0.451279,49.367268,32.010223,-31.062990
585,2522692293,71.817818,20.515228,-33.612835,-0.560876,1.046447,0.208725,47.651207,36.647949,-26.105896
586,2522708960,72.758041,21.063507,-33.014927,-0.695307,0.847815,0.100706,45.109509,40.955692,-21.356092
587,2522725627,73.766464,21.553211,-32.339962,-0.890342,0.498506,0.236493,47.215324,43.592018,-17.489931
588,2522742294,74.821373,21.957085,-31.622799,-1.206181,0.388656,0.616297,48.776215,44.030571,-12.724180
589,2522758961,75.887848,22.277004,-30.852942,-1.063827,0.658492,0.437949,48.026360,45.251118,-7.964354
590,2522775628,76.880074,22.518291,-30.027527,-1.048212,0.680589,0.374442,42.093765,46.904972,-3.499781
591,2522792295,77.753334,22.681721,-29.156889,-1.167934,0.552263,0.569665,33.753971,48.195911,0.817510
592,2522808962,78.479210,22.754253,-28.297426,-1.414626,0.162846,1.185000,25.071096,46.435566,5.335126
593,2522825629,79.015007,22.754448,-27.461620,-1.678501,-0.066699,1.500336,14.186135,44.350964,8.814751
594,2522842296,79.403275,22.719294,-26.646025,-1.839759,0.166130,1.437902,5.819892,42.932262,10.328321
595,2522858963,79.663025,22.690159,-25.812515,-1.498719,0.566383,1.262507,-2.278919,44.039783,9.911256
596,2522875630,79.814384,22.676641,-24.943550,-1.667036,0.391951,1.333373,-9.586130,46.182743,9.182208
597,2522892297,79.943199,22.668148,-24.074512,-2.064983,-0.054316,1.519726,-10.927107,46.263382,8.776141
598,2522908964,80.096977,22.651697,-23.242762,-2.064487,-0.189489,1.821213,-8.558316,44.177143,8.776224
599,2522925631,80.215889,22.636791,-22.445419,-1.970565,-0.034049,2.133081,-9.840211,42.340912,8.257546
600,2522942298,80.196022,22.650345,-21.673182,-2.081892,0.333687,2.099246,-17.585279,41.269394,6.305322
601,2522958965,79.966682,22.702749,-20.912230,-2.392444,0.497373,2.018531,-29.917362,41.032101,3.994804
602,2522975632,79.493538,22.798521,-20.202213,-2.973732,0.161265,1.738759,-43.416412,38.674595,1.190448
603,2522992299,78.828835,22.952038,-19.604115,-3.392835,-0.431659,1.714457,-52.382984,33.195641,-2.983753
604,2523008966,78.058907,23.168734,-19.160898,-3.738632,-0.875769,1.679360,-55.164413,25.569822,-7.985454
605,2523025633,77.204086,23.434776,-18.897932,-4.113171,-1.034898,1.712531,-56.077679,16.567392,-12.631663
606,2523042300,76.268494,23.737051,-18.825373,-4.174738,-0.879941,1.757481,-56.424606,7.039616,-16.874573
607,2523058967,75.236809,24.073746,-18.921240,-4.350924,-0.776010,1.651011,-58.113914,-1.129471,-21.006666
608,2523075634,74.056358,24.455542,-19.178776,-4.565972,-0.830209,1.723489,-63.019951,-8.524560,-25.946836
609,2523092301,72.664215,24.881325,-19.621647,-5.104311,-1.169873,1.665932,-70.978790,-16.825893,-31.512438
610,2523108968,71.087677,25.321232,-20.275211,-5.409758,-1.318552,1.607449,-76.492416,-26.544523,-36.246113
611,2523125635,69.355415,25.716946,-21.136959,-5.397786,-1.123935,1.572228,-80.195648,-36.879913,-38.240681
612,2523142302,67.471794,26.007555,-22.164238,-5.249718,-0.840381,1.672138,-84.657524,-46.171551,-36.724064
613,2523158969,65.416397,26.142776,-23.310616,-4.938190,-0.476324,1.788913,-91.615265,-54.399601,-32.226727
614,2523175636,63.165916,26.093538,-24.518955,-4.599153,0.009388,1.854720,-101.635361,-60.946468,-25.672722
615,2523192303,60.652954,25.839445,-25.752659,-4.118805,0.419629,2.110345,-116.888046,-66.902924,-17.979069
616,2523208970,57.863861,25.359880,-26.995584,-4.156055,0.815621,1.826339,-133.639679,-73.533157,-9.739482
617,2523225637,54.871983,24.644186,-28.232527,-4.075099,1.192753,1.094767,-146.659317,-80.811493,-1.588356
618,2523242304,51.754005,23.709776,-29.407885,-3.655163,1.433631,0.475909,-156.707397,-86.117935,6.434169
619,2523258971,48.622787,22.565866,-30.460701,-3.079345,1.659352,0.113667,-161.559860,-89.603539,15.442416
620,2523275638,45.579243,21.221691,-31.338404,-2.312787,1.873356,-0.121698,-161.483002,-91.740723,25.730738
621,2523292305,42.635769,19.708582,-32.014381,-1.797884,1.812936,-0.301003,-160.935593,-92.684731,35.814930
622,2523308972,39.751503,18.053453,-32.509933,-1.378606,1.653964,-0.469899,-161.943283,-94.308426,44.145599
623,2523325639,36.880814,16.295134,-32.828846,-1.006424,1.680841,-0.627048,-165.099136,-95.169441,50.971718
624,2523342306,33.933239,14.502244,-32.950172,-0.483785,1.880361,-0.960660,-173.430618,-92.807785,56.509949
625,2523358973,30.791716,12.731014,-32.844891,-0.004966,1.982043,-0.925088,-188.489624,-87.547943,61.975075
626,2523375640,27.397259,11.026519,-32.494530,0.155647,1.835907,-1.204380,-206.507858,-80.433601,67.604355
627,2523392307,23.703348,9.445879,-31.913177,0.523570,1.796127,-1.637359,-226.348694,-71.833618,71.769295
628,2523408974,19.618685,8.042999,-31.135250,0.720021,1.568658,-2.265378,-250.694290,-62.275494,73.841537
629,2523425641,15.178986,6.842315,-30.216635,0.779006,1.248636,-2.548378,-272.043152,-53.482357,73.579765
630,2523442308,10.430290,5.868098,-29.192698,0.883666,0.845045,-2.370697,-290.247864,-44.545639,72.379242
631,2523458975,5.561829,5.105800,-28.055672,1.131691,0.447689,-2.266081,-297.159760,-36.922665,73.492599
632,2523475642,0.780650,4.524650,-26.788219,1.541635,0.464156,-2.473157,-291.785431,-31.696152,77.464897
633,2523492309,-3.849540,4.120059,-25.326445,1.824649,0.468656,-2.593018,-282.953552,-27.677095,86.650414
634,2523508976,-8.251803,3.850488,-23.591076,2.309148,-0.201748,-2.719087,-269.903168,-28.097607,101.458374
635,2523525643,-12.205992,3.687854,-21.553886,2.775198,-0.999114,-2.471660,-243.814911,-32.321289,118.156219
636,2523542310,-15.479460,3.609080,-19.197056,4.497749,-1.446496,-2.127570,-203.935287,-39.407658,135.749603
637,2523558977,-17.985052,3.623310,-16.622772,6.272593,-1.926812,-1.503282,-158.610336,-44.606991,147.716064
638,2523575644,-19.531750,3.778209,-13.905725,8.528821,-2.421138,-1.302297,-101.866905,-44.551258,156.874954
639,2523592311,-20.042238,4.113292,-11.384244,9.555250,-3.550482,-1.378290,-39.595413,-33.200260,148.664963
640,2523608978,-19.436922,4.646585,-9.276769,9.328411,-4.866341,-1.443686,28.097898,-13.478240,129.320877
641,2523625645,-17.508211,5.338450,-7.767565,7.831330,-6.168050,-2.080265,109.276802,9.789021,98.566818
642,2523642312,-14.337708,6.080437,-6.951570,5.806483,-5.497664,-3.057898,186.802353,28.459494,58.919891
643,2523658979,-10.305096,6.728336,-6.854173,4.173651,-4.847421,-3.469130,242.755722,35.763241,13.829865
644,2523675646,-5.447014,7.208276,-7.435628,3.545742,-4.631757,-3.804739,297.171356,32.303883,-30.517525
645,2523692313,0.008727,7.528059,-8.654250,3.888329,-3.561868,-3.924899,338.169556,21.641325,-71.695786
646,2523708980,5.609735,7.797348,-10.362270,4.505943,-2.461524,-3.871558,351.162720,10.197110,-102.423691
647,2523725647,10.993546,8.135235,-12.377341,4.293694,-1.365613,-3.849209,341.214386,1.810906,-121.613472
648,2523742314,15.901674,8.571790,-14.530362,4.570966,-0.068789,-2.731577,314.681946,-5.208835,-130.603439
649,2523758981,20.205555,9.115378,-16.640444,4.774024,0.449905,-1.556684,279.124481,-8.716836,-129.248459
650,2523775648,24.027767,9.775303,-18.582863,4.657646,0.187642,-0.859132,249.889053,-7.554987,-121.611328
651,2523792315,27.455833,10.570143,-20.310162,4.036496,0.138198,-0.747533,225.420868,-2.297039,-112.797867
652,2523808982,30.580544,11.466732,-21.823029,2.652765,-0.240346,-0.786492,206.265823,2.870745,-104.216240
653,2523825649,33.694008,12.386184,-23.118729,1.499814,-0.430445,-0.799945,204.306488,5.304907,-93.957794
654,2523842316,36.864540,13.272915,-24.221739,0.618809,-0.403695,-0.442348,206.360489,5.214423,-83.613106
655,2523858983,40.138840,14.090875,-25.120377,0.268059,-0.274966,-0.665330,210.645798,4.839987,-71.761581
656,2523875650,43.663383,14.860518,-25.804914,0.295472,-0.177699,-0.870896,223.173782,6.857602,-60.649715
657,2523892317,47.455528,15.603774,-26.246489,0.370510,0.494963,-0.604701,235.925797,12.011128,-49.953701
658,2523908984,51.434238,16.319077,-26.410681,0.336663,1.352938,-0.679291,242.865387,19.746372,-38.980972
659,2523925651,55.464245,17.006237,-26.300552,0.225157,1.771634,-0.192912,241.339386,28.672592,-29.564323
660,2523942318,59.453403,17.655592,-25.930096,-0.016029,1.988308,-0.123096,234.159653,37.873123,-21.643063
661,2523958985,63.313648,18.279936,-25.333740,0.135116,2.021495,0.353767,222.008133,46.840759,-16.795736
662,2523975652,67.011330,18.902838,-24.549181,-0.219806,1.852340,0.334046,208.277512,55.208660,-15.384122
663,2523992319,70.479752,19.512369,-23.605749,-0.584340,1.660996,0.678609,190.909271,62.087643,-14.913884
664,2524008986,73.636108,20.114748,-22.529655,-1.074593,1.814575,0.583934,168.920532,67.927795,-15.878272
665,2524025653,76.568428,20.699451,-21.312054,-1.476471,1.408960,-0.198349,151.891144,74.190918,-16.500238
666,2524042320,79.321831,21.289515,-19.942198,-1.928893,0.999055,-0.291265,137.181046,81.433823,-18.794476
667,2524058987,81.835587,21.886587,-18.452232,-1.934469,1.172696,0.125930,119.359962,86.862610,-21.925976
668,2524075654,84.022736,22.455374,-16.835125,-1.280184,1.717606,0.925378,96.039085,92.357544,-22.994976
669,2524092321,85.933144,22.943756,-15.106408,-1.033850,1.763488,1.347549,76.025307,96.872963,-20.998341
670,2524108988,87.601730,23.296841,-13.339128,-1.237317,1.462632,1.805984,59.907425,97.542328,-15.834452
671,2524125655,89.001938,23.511375,-11.629385,-1.900656,1.140242,2.265303,44.696064,93.464966,-10.257241
672,2524142322,90.202805,23.615786,-10.047406,-2.581872,1.137280,2.445444,35.538574,86.029099,-5.838286
673,2524158989,91.188812,23.638056,-8.657088,-3.196119,0.832690,2.706467,27.160032,75.386940,-2.437885
674,2524175656,92.010132,23.613041,-7.524885,-3.716290,0.528759,2.520289,23.489422,61.236607,-0.406006
675,2524192323,92.750504,23.570261,-6.685255,-3.820148,0.006892,2.697290,25.695271,45.216511,0.482605
676,2524208990,93.395668,23.522961,-6.121936,-3.811616,-0.196454,2.974516,26.642590,30.077862,1.012905
677,2524225657,93.936928,23.484188,-5.788924,-4.057293,-0.466577,2.958951,25.943287,17.419956,0.994538
678,2524242324,94.352074,23.478460,-5.659956,-4.475696,-0.645146,2.865050,23.263235,6.089681,-0.320262
679,2524258991,94.552643,23.535053,-5.680502,-5.033608,-0.952562,2.643569,13.962678,-2.401461,-3.443553
680,2524275658,94.446106,23.683748,-5.821200,-5.513166,-1.363784,2.330294,-1.571250,-9.421906,-8.427620
681,2524292325,94.032188,23.935326,-6.059498,-5.869207,-1.555716,2.000651,-17.619354,-15.169107,-14.220219
682,2524308992,93.383919,24.272659,-6.380187,-5.995369,-1.422019,1.564358,-29.593847,-19.843052,-19.189987
683,2524325659,92.510338,24.659281,-6.747410,-5.678289,-1.064776,1.438163,-41.843155,-22.227489,-22.257982
684,2524342326,91.395111,25.059284,-7.109981,-5.174402,-0.819257,1.522898,-56.322990,-21.544706,-23.431583
685,2524358993,90.032471,25.445732,-7.455836,-4.841140,-0.968550,1.854280,-71.457840,-20.058350,-23.064217
686,2524375660,88.340553,25.802238,-7.812500,-4.493132,-1.371391,2.467080,-90.807259,-19.993635,-21.770765
687,2524392327,86.308784,26.128569,-8.214761,-4.267979,-1.663046,2.584436,-109.886314,-21.765142,-20.676912
688,2524408994,83.909714,26.430607,-8.698042,-3.951792,-1.397498,2.621326,-129.651672,-25.361345,-20.375700
689,2524425661,81.072792,26.690578,-9.252018,-3.297570,-0.310642,2.615402,-153.894028,-28.443115,-19.448671
690,2524442328,77.721825,26.894567,-9.832550,-2.897014,0.197056,2.503689,-183.901398,-29.313980,-17.848949
691,2524458995,73.917397,27.027021,-10.480094,-2.851162,-0.112554,2.700522,-209.192612,-32.643204,-16.286427
692,2524475662,69.759636,27.035412,-11.252006,-2.786928,-0.652939,3.043113,-226.956070,-40.061951,-13.432927
693,2524492329,65.413216,26.841541,-12.163551,-2.733913,-0.350724,2.624332,-234.543564,-50.534756,-7.931072
694,2524508996,61.026264,26.414576,-13.097386,-2.950797,0.755678,0.679120,-236.640976,-57.286217,0.211778
695,2524525663,56.506977,25.799032,-13.939588,-2.439746,1.502231,-0.218903,-247.453415,-58.986225,7.960778
696,2524542330,51.749020,25.014845,-14.597840,-1.970484,1.719441,-0.127639,-267.064362,-57.526600,17.131447
697,2524558997,46.780651,24.050461,-15.014412,-1.645762,1.592582,0.410403,-286.257324,-56.041992,28.920845
698,2524575664,41.585533,22.874918,-15.202787,-1.613681,1.411164,0.570884,-305.737183,-58.868206,41.640076
699,2524592331,36.331684,21.508238,-15.169623,-2.222903,1.200820,-0.828453,-314.509491,-63.676407,52.907539
700,2524608998,31.071692,20.032955,-14.894602,-2.003540,0.758079,-2.468555,-319.976593,-66.156250,61.868645
701,2524625665,25.880972,18.523615,-14.399717,-1.512539,0.262608,-3.093555,-319.769806,-67.324997,67.725990
702,2524642332,21.103489,17.007811,-13.647295,-0.596781,-0.397326,-2.648600,-298.948486,-67.353577,75.592209
703,2524658999,16.836231,15.506976,-12.628880,0.473774,-0.141085,-1.843928,-271.666748,-67.170082,84.646729
704,2524675666,13.168509,14.006947,-11.343239,1.272858,0.048106,-1.716528,-238.237900,-68.698822,95.239845
705,2524692333,10.107732,12.550799,-9.777508,1.915560,-0.181419,-2.580525,-203.752502,-68.196198,107.054749
706,2524709000,7.562718,11.224272,-7.953824,2.879341,-0.262555,-3.025128,-173.773209,-63.261013,117.904602
707,2524725667,5.337306,10.064332,-5.927096,3.404453,-0.326486,-2.926230,-154.522278,-56.783634,126.443047
708,2524742334,3.388303,9.035419,-3.725546,4.127895,-0.239001,-2.669872,-137.392426,-52.694035,134.440689
709,2524759001,1.780676,8.084696,-1.376560,4.870178,-0.131835,-2.693757,-115.977257,-51.740723,141.659866
710,2524775668,0.498118,7.188618,1.078112,5.813498,0.009236,-3.307743,-95.069511,-51.883762,146.867188
711,2524792335,-0.668063,6.350692,3.532285,6.659595,0.251729,-2.876462,-85.874596,-51.517307,145.998718
712,2524809002,-1.782897,5.623610,5.812103,7.328008,-0.860893,-2.081097,-79.706276,-47.543140,134.928375
713,2524825669,-2.698584,5.073096,7.715847,7.672192,-1.398802,-1.425061,-64.139519,-38.464718,112.196899
714,2524842336,-3.272737,4.812191,9.155433,6.930395,-1.868016,-2.579786,-40.443321,-21.121618,84.970108
715,2524859003,-3.223768,4.824152,10.058756,5.752234,-1.734568,-3.821367,-0.165857,-3.344694,53.809109
716,2524875670,-2.326267,5.048649,10.538776,4.743302,-2.229832,-4.007171,52.822102,11.069153,29.159908
717,2524892337,-0.584027,5.348644,10.664042,4.139322,-2.398351,-3.467575,105.306252,16.812654,7.786670
718,2524909004,1.916212,5.585921,10.429932,3.648263,-2.415483,-3.050954,152.807999,13.085578,-14.300598
719,2524925671,5.054504,5.662909,9.774148,3.579833,-1.997660,-2.615519,193.608673,1.244750,-39.523617
720,2524942338,8.531857,5.606400,8.692685,3.845036,-1.096186,-2.565762,216.465256,-11.989632,-63.887337
721,2524959005,12.080598,5.487638,7.256098,3.314666,0.129018,-2.428269,222.704514,-23.342014,-83.299919
722,2524975672,15.551541,5.356659,5.601308,3.309675,1.507714,-2.294388,219.082596,-32.216942,-94.282181
723,2524992339,18.767086,5.300426,3.854472,3.591095,2.341588,-1.759668,204.106583,-34.990536,-98.891533
724,2525009006,21.730118,5.354365,2.087212,3.736669,2.343318,-1.194554,189.065140,-34.479877,-100.350937
725,2525025673,24.485357,5.516240,0.325283,3.379435,2.048815,-0.684259,176.763840,-33.344761,-100.792046
726,2525042340,27.022562,5.759598,-1.423254,2.687840,1.651570,-0.461252,163.972031,-33.187580,-100.563393
727,2525059007,29.400143,6.081635,-3.145600,2.286138,1.541795,-0.518817,154.745285,-32.537159,-99.898285
728,2525075674,31.722034,6.476932,-4.826730,1.692639,1.667812,-0.243139,151.774078,-31.532320,-98.586174
729,2525092341,34.030197,6.902884,-6.441658,1.385014,1.655303,0.059997,151.204010,-31.749250,-94.883812
730,2525109008,36.390106,7.365212,-7.987891,1.125077,1.373048,0.480768,154.538437,-31.389439,-91.397682
731,2525125675,38.799854,7.882122,-9.475033,0.721761,1.083300,0.467360,157.844315,-30.362923,-89.192169
732,2525142342,41.240509,8.469489,-10.882291,0.455856,0.983632,0.269217,159.866882,-27.738199,-86.861282
733,2525159009,43.620934,9.147426,-12.187269,0.154010,1.145871,-0.000016,156.233521,-23.166655,-84.748154
734,2525175676,45.959534,9.917439,-13.360474,0.232693,1.384863,-0.134075,153.389954,-17.108831,-82.012070
735,2525192343,48.158115,10.754919,-14.394559,0.005801,1.390166,0.085798,144.464020,-11.440725,-78.560425
736,2525209010,50.242825,11.636721,-15.297990,-0.297009,1.184769,0.303229,137.024490,-6.675425,-74.990372
737,2525225677,52.257202,12.548951,-16.088490,-0.615012,1.117714,0.330913,132.215256,-2.907427,-71.907303
738,2525242344,54.216488,13.469460,-16.750751,-0.685992,1.199799,0.070866,127.918434,1.043557,-67.606796
739,2525259011,56.068851,14.398741,-17.269608,-0.504753,1.353535,-0.122345,120.053413,6.073492,-63.210777
740,2525275678,57.792439,15.327597,-17.638218,-0.728397,1.064220,0.225137,110.504501,11.492590,-58.555336
741,2525292345,59.472404,16.208433,-17.908775,-1.019388,0.406465,0.680990,106.624542,13.166242,-53.443409
742,2525309012,61.106522,17.036623,-18.115553,-1.114905,0.095174,0.749536,103.013092,13.294858,-49.235165
743,2525325679,62.640385,17.840000,-18.250748,-0.823159,0.201824,0.564775,95.881599,14.888302,-46.341240
744,2525342346,64.039474,18.640545,-18.268209,-0.725490,0.168520,0.422585,85.690613,19.655884,-43.551697
745,2525359013,65.362511,19.417316,-18.167393,-0.914727,-0.070043,0.462622,78.830360,24.073683,-39.871979
746,2525375680,66.679123,20.138458,-17.954611,-1.065940,-0.363328,0.539389,76.097931,27.548906,-34.827766
747,2525392347,68.005363,20.787910,-17.627594,-1.116693,-0.811405,0.618625,74.136322,30.960787,-29.053360
748,2525409014,69.360260,21.369326,-17.189411,-1.236877,-0.963331,0.418059,73.262505,34.523003,-23.752623
749,2525425681,70.650978,21.910234,-16.635107,-1.033158,-0.713444,0.522383,66.604240,39.135986,-20.098852
750,2525442348,71.912193,22.405327,-15.932540,-1.191947,-0.689760,0.606432,61.202572,45.494583,-15.775442
751,2525459015,73.185547,22.807207,-15.087999,-1.286493,-0.435357,0.692587,58.351898,50.843491,-9.142752
752,2525475682,74.447006,23.078161,-14.121401,-1.326880,-0.499401,0.817902,54.510883,54.808449,-0.894414
753,2525492349,75.576263,23.210968,-13.098991,-1.143749,-1.109012,1.144357,45.075157,55.533195,6.725242
754,2525509016,76.612099,23.234613,-12.080380,-1.228550,-1.517838,0.953987,39.485386,53.845955,11.956450
755,2525525683,77.581009,23.201735,-11.106813,-1.099087,-1.209982,0.939208,36.541985,50.875011,13.748475
756,2525542350,78.445396,23.122154,-10.173149,-1.240306,-0.704292,0.835711,31.267654,48.377804,15.206508
757,2525559017,79.205185,23.005089,-9.285026,-1.401842,-0.628587,0.975567,26.149534,45.726364,16.232756
758,2525575684,79.842690,22.876228,-8.445142,-1.736570,-0.871973,1.033482,20.048922,43.216351,15.883274
759,2525592351,80.362984,22.768381,-7.665335,-1.884055,-0.840359,0.902068,14.511995,40.357311,13.630860
760,2525609018,80.753944,22.700731,-6.935473,-2.029716,-0.559129,0.537704,7.978715,38.163891,10.476442
761,2525625685,81.007713,22.685282,-6.241029,-2.173022,-0.447962,0.178916,0.595319,36.796284,6.856477
762,2525642352,81.121483,22.740658,-5.570303,-2.513111,-0.514677,0.032048,-7.267062,36.176445,2.336081
763,2525659019,81.152161,22.858942,-4.917881,-2.911900,-0.715129,-0.079552,-11.882009,35.740238,-1.595718
764,2525675686,81.173660,23.023516,-4.304943,-3.417624,-0.953404,-0.216988,-11.599840,33.972500,-4.694266
765,2525692353,81.222076,23.217701,-3.747381,-3.938295,-0.810373,-0.228125,-8.785010,31.177847,-6.942015
766,2525709020,81.328087,23.395435,-3.262931,-4.527904,-0.675434,-0.131102,-3.690903,26.992716,-6.621554
767,2525725687,81.490814,23.550556,-2.881759,-4.941822,-0.610502,0.002525,2.100930,21.123732,-6.193981
768,2525742354,81.632515,23.692751,-2.640325,-5.345767,-0.677351,0.022348,4.146450,13.370179,-6.610477
769,2525759021,81.706398,23.833040,-2.572598,-5.241895,-0.655154,0.199601,4.242476,3.891032,-7.902047
770,2525775688,81.658287,23.971357,-2.709177,-4.953434,-0.667426,0.653021,1.882938,-7.220031,-9.400775
771,2525792355,81.356812,24.097429,-3.067754,-4.373483,-0.394151,1.337863,-7.877406,-19.324448,-10.481915
772,2525809022,80.640793,24.211100,-3.643107,-3.923938,-0.389060,1.941088,-27.383305,-31.052872,-11.758367
773,2525825689,79.462265,24.324015,-4.450047,-3.991518,-0.693136,1.755053,-49.359673,-43.312649,-14.387305
774,2525842356,77.798271,24.458221,-5.474125,-3.698106,-0.399715,1.785147,-73.010750,-54.281776,-19.010641
775,2525859023,75.621727,24.601614,-6.658300,-3.408404,0.300055,1.866595,-99.633942,-61.943295,-23.312922
776,2525875690,72.858002,24.727848,-7.914057,-2.634505,1.056036,2.272025,-132.919266,-64.857384,-25.964514
777,2525892357,69.434052,24.829605,-9.176983,-2.236013,1.290747,2.205711,-172.214478,-64.159149,-28.088949
778,2525909024,65.478027,24.904284,-10.483840,-2.299557,0.896853,1.798171,-202.922211,-65.021881,-31.491222
779,2525925691,61.216679,24.927198,-11.873479,-2.393970,0.426595,1.302931,-219.084518,-68.008209,-35.227440
780,2525942358,56.933594,24.850584,-13.328203,-2.279172,0.261118,0.916057,-218.778519,-71.331642,-36.825058
781,2525959025,52.947659,24.630905,-14.803177,-2.014422,0.046295,0.616647,-200.644562,-74.415260,-35.458031
782,2525975692,49.489716,24.227966,-16.261185,-2.022633,-0.238677,0.389956,-169.823746,-78.282440,-31.116224
783,2525992359,46.643116,23.630400,-17.665295,-1.945274,-0.260745,0.040815,-135.148300,-82.304451,-24.866968
784,2526009026,44.335339,22.851116,-18.965258,-1.562717,0.055280,0.183220,-106.213020,-84.944260,-16.975336
785,2526025693,42.466354,21.925797,-20.107737,-0.984778,0.448066,0.146221,-84.554283,-84.948700,-7.983154
786,2526042360,40.809364,20.887949,-21.082825,-0.757129,0.795500,0.072179,-76.588615,-83.790527,0.586513
787,2526059027,39.198772,19.771435,-21.883507,-0.590208,1.131053,-0.354389,-78.468658,-81.338188,8.477311
788,2526075694,37.477654,18.619051,-22.502563,-0.275023,1.251696,-0.595939,-89.577209,-77.060295,15.292423
789,2526092361,35.578617,17.449171,-22.937626,-0.054700,1.131379,-0.254269,-104.383980,-72.250587,21.749557
790,2526109028,33.579983,16.242186,-23.186041,0.268715,0.991373,-0.039939,-114.121773,-68.797440,29.267559
791,2526125695,31.577919,14.967645,-23.255640,0.118739,0.774193,-0.193917,-117.526436,-67.682854,37.697292
792,2526142362,29.660305,13.621772,-23.164480,-0.051308,0.551438,-1.359937,-114.933113,-67.872902,45.596767
793,2526159029,27.732803,12.304254,-22.923225,0.413976,0.395876,-2.204409,-117.423111,-63.650341,50.232712
794,2526175696,25.707325,11.060166,-22.550934,0.488195,0.201594,-1.677256,-124.578651,-57.921112,53.003361
795,2526192363,23.704134,9.836667,-22.050232,0.762771,0.053832,-0.700823,-124.168335,-55.425835,57.416088
796,2526209030,21.833845,8.611710,-21.451254,1.116481,0.272131,-0.236165,-116.508057,-55.124222,61.044453
797,2526225697,20.152525,7.340291,-20.695848,1.057188,0.521720,-0.638714,-105.701195,-56.222923,69.122879
798,2526242364,18.561893,6.064508,-19.773026,1.160226,0.302385,-1.852057,-100.433846,-55.072994,77.137779
799,2526259031,16.862478,4.877203,-18.680449,1.737012,0.028850,-2.045173,-106.749817,-49.089180,83.713455
800,2526275698,14.866207,3.850035,-17.429071,2.130685,0.210020,-1.526157,-124.024925,-39.895420,88.738167
801,2526292365,12.627907,2.962410,-16.010710,2.590709,0.273584,-0.997311,-137.891586,-32.619991,95.048126
802,2526309032,10.292887,2.195982,-14.483026,3.025572,0.595860,-0.945183,-142.765015,-27.947704,98.747124
803,2526325699,8.008663,1.526895,-12.798979,3.519769,-0.073349,-1.143706,-138.878006,-24.640696,105.955353
804,2526342366,5.984188,0.956155,-10.979447,3.981248,-1.236982,-1.309143,-122.379082,-21.755596,112.364738
805,2526359033,4.378259,0.474401,-9.092234,4.685623,-2.049117,-1.145187,-96.317154,-19.615355,115.229599
806,2526375700,3.387639,0.080246,-7.241683,5.361501,-2.483485,-0.912285,-58.525707,-17.120665,112.227806
807,2526392367,3.166206,-0.215410,-5.538525,5.829345,-2.578629,-0.795413,-11.719309,-12.903520,102.887123
808,2526409034,3.794055,-0.365955,-4.109180,6.021066,-2.869573,-1.120322,39.551872,-4.834819,86.000153
809,2526425701,5.194889,-0.338127,-3.087486,5.772699,-2.965662,-1.664904,85.876526,5.454329,60.827938
810,2526442368,7.278102,-0.135654,-2.594726,5.006248,-2.927782,-1.935381,126.570335,14.285424,27.915886
811,2526459035,10.047919,0.180004,-2.690056,4.296237,-2.624746,-2.017440,167.652222,16.869417,-8.662610
812,2526475702,13.362101,0.581039,-3.374465,4.258244,-2.047079,-2.035157,200.585953,14.246937,-45.252506
813,2526492369,17.084570,1.083506,-4.558421,4.590025,-1.634369,-2.182755,225.838531,9.463508,-76.622070
814,2526509036,21.114397,1.731076,-6.108542,4.792260,-1.075574,-2.282958,245.526016,5.321892,-100.758965
815,2526525703,25.204731,2.501139,-7.871746,4.347234,-0.155625,-1.916131,250.772476,-0.061320,-115.566925
816,2526542370,29.178114,3.349879,-9.702072,3.777854,0.151728,-1.530005,245.450043,-5.779610,-121.027977
817,2526559037,32.973667,4.237509,-11.512397,3.243033,-0.002156,-0.962125,236.360474,-11.285072,-120.527092
818,2526575704,36.553375,5.161526,-13.248764,2.914428,0.019105,-0.794782,224.756836,-14.607538,-117.121910
819,2526592371,39.892120,6.133664,-14.879997,2.507861,0.047474,-0.998154,211.395889,-15.388356,-112.824677
820,2526609038,42.953026,7.167378,-16.391624,2.111994,-0.310630,-1.050060,195.596710,-14.043460,-108.811218
821,2526625705,45.806103,8.252534,-17.805880,1.317747,-0.512532,-0.966509,184.004532,-13.223143,-105.865341
822,2526642372,48.465767,9.339284,-19.129776,0.856815,-0.394823,-0.770448,173.163589,-14.129171,-101.425125
823,2526659039,51.008316,10.402313,-20.358400,0.820089,-0.419319,-0.951067,166.627472,-15.149297,-95.844902
824,2526675706,53.616386,11.441651,-21.483183,1.052899,-0.590159,-1.244981,170.707275,-15.263895,-90.098457
825,2526692373,56.244308,12.476685,-22.491611,0.868073,-0.296992,-1.189032,171.649811,-13.719471,-85.083977
826,2526709040,58.915192,13.494372,-23.370495,0.339665,0.207453,-1.337638,173.535172,-11.594312,-79.340927
827,2526725707,61.573719,14.493872,-24.113668,-0.098865,0.594560,-0.515715,171.729263,-8.761047,-73.788277
828,2526742374,64.072731,15.452629,-24.733673,-0.393653,0.724511,0.225694,160.983810,-6.657010,-67.839302
829,2526759041,66.411507,16.359659,-25.227179,-0.341163,0.719557,0.316346,149.874985,-4.040406,-61.597343
830,2526775708,68.573196,17.238766,-25.578489,-0.035544,0.770528,0.126972,137.225906,0.572456,-56.705143
831,2526792375,70.487930,18.112394,-25.773281,-0.071337,0.917218,0.247570,119.863197,6.919466,-53.251740
832,2526809042,72.143784,18.965242,-25.809546,-0.208350,1.088255,0.418906,101.474594,13.451190,-49.385834
833,2526825709,73.536446,19.783691,-25.698442,-0.288722,1.146823,0.728238,82.776688,19.509184,-45.314869
834,2526842376,74.735062,20.549484,-25.478645,-0.594464,0.801079,1.062379,68.797897,23.473135,-41.060638
835,2526859043,75.771896,21.257496,-25.184828,-0.845000,0.479902,0.917005,57.347450,25.744991,-37.134438
836,2526875710,76.679260,21.927002,-24.826153,-0.880390,0.754589,0.516276,47.951691,27.995657,-34.495163
837,2526892377,77.514763,22.548176,-24.385881,-0.808237,1.128528,0.338782,41.561516,31.155815,-31.109985
838,2526909044,78.321884,23.100164,-23.853128,-0.783058,1.083384,0.483036,37.455425,34.738438,-26.458063
839,2526925711,79.181442,23.561611,-23.222998,-0.868512,1.039246,0.608629,38.029182,38.443317,-20.619209
840,2526942378,80.108208,23.905609,-22.500435,-0.903730,1.068694,0.597196,39.583618,41.743908,-13.403575
841,2526959045,80.975304,24.167490,-21.682871,-0.832580,1.108337,0.298867,33.469677,45.764614,-8.367765
842,2526975712,81.718643,24.397203,-20.767620,-1.109355,0.968434,-0.146100,23.443466,50.546661,-6.322987
843,2526992379,82.315376,24.688919,-19.778257,-1.696631,0.641626,-0.557607,12.570939,54.892841,-10.058311
844,2527009046,82.901817,25.064297,-18.748268,-2.203465,0.290203,-0.737668,10.618951,57.479061,-15.342564
845,2527025713,83.515442,25.508629,-17.690857,-2.355993,0.144946,-0.506890,11.146248,59.098820,-19.903259
846,2527042380,84.201920,25.978868,-16.616140,-2.463721,-0.101481,-0.128471,14.609698,59.751453,-22.046965
847,2527059047,85.026924,26.452057,-15.538896,-2.766645,-0.221424,0.090909,22.382137,59.377300,-23.024647
848,2527075714,86.001938,26.896145,-14.479030,-3.111536,-0.107102,0.493388,31.387144,57.719257,-22.314672
849,2527092381,87.034019,27.303452,-13.455999,-3.683691,-0.403034,1.051620,35.401604,55.011425,-21.260569
850,2527109048,88.007027,27.666405,-12.522552,-4.229257,-0.898147,1.789577,33.972134,49.569004,-19.784990
851,2527125715,88.817078,27.974871,-11.716693,-4.368803,-1.151650,2.398211,27.481775,42.247326,-17.482868
852,2527142382,89.334488,28.218834,-11.061543,-4.296639,-1.280296,2.889199,13.977715,33.904797,-14.232374
853,2527159049,89.413094,28.409481,-10.588818,-4.505265,-1.554493,3.022033,-7.284231,24.092690,-11.309674
854,2527175716,89.001900,28.585173,-10.348695,-4.827396,-1.744967,2.648108,-30.086325,11.809175,-10.497689
855,2527192383,88.149193,28.772779,-10.361100,-5.011313,-1.612766,1.989482,-49.341713,-1.365848,-11.388354
856,2527209050,86.958649,28.972040,-10.615837,-5.038580,-1.231000,1.412992,-62.587013,-13.850608,-12.622140
857,2527225717,85.547981,29.152832,-11.071816,-4.940989,-0.743869,0.970010,-69.877388,-24.139666,-12.478703
858,2527242384,84.002777,29.279942,-11.688306,-4.756965,-0.399007,0.873516,-73.180794,-32.439602,-10.612380
859,2527259051,82.304588,29.335524,-12.440732,-4.434592,-0.193891,0.996728,-78.312775,-39.674816,-8.067863
860,2527275718,80.398254,29.296276,-13.298712,-4.018300,-0.033957,1.111736,-87.693375,-45.716995,-4.473835
861,2527292385,78.252052,29.156773,-14.249291,-3.539294,0.480466,1.297086,-99.435555,-51.453453,-1.034350
862,2527309052,75.785591,28.894617,-15.257970,-2.857402,1.101147,1.682434,-117.134399,-56.094963,3.410399
863,2527325719,72.858795,28.491531,-16.275208,-1.979448,1.760506,2.103156,-144.810455,-59.087681,8.796014
864,2527342386,69.315796,27.976810,-17.258329,-1.102754,2.190235,2.084597,-183.182831,-60.190952,12.355827
865,2527359053,65.180397,27.386784,-18.242207,-1.287636,2.112041,1.390666,-219.206070,-62.931171,12.418034
866,2527375720,60.585491,26.762383,-19.300089,-1.906999,1.696720,0.496288,-245.313019,-68.430458,7.574736
867,2527392387,55.784801,26.095892,-20.492575,-2.740137,1.177728,-0.466168,-254.698929,-76.595680,0.192470
868,2527409054,51.147587,25.313921,-21.801714,-3.257090,0.656567,-1.304945,-242.661713,-85.882553,-4.444418
869,2527425721,47.005066,24.351109,-23.149038,-3.429585,0.431409,-1.646964,-213.095901,-94.371979,-4.415975
870,2527442388,43.609234,23.165806,-24.416378,-2.903541,0.458357,-1.897916,-171.602020,-100.600334,1.603265
871,2527459055,40.964748,21.784100,-25.530048,-2.056802,0.537137,-1.479420,-131.610931,-103.988693,10.098958
872,2527475722,38.904247,20.263287,-26.479462,-1.463611,0.558126,-0.992568,-101.677643,-105.221878,17.796028
873,2527492389,37.263992,18.625299,-27.311178,-1.534777,0.425795,-0.920974,-80.282272,-107.513039,23.572849
874,2527509056,35.859695,16.907862,-28.045647,-1.250106,0.794876,-1.079910,-69.289345,-108.903320,27.668394
875,2527525723,34.575726,15.147219,-28.649298,-0.521652,1.296609,-1.136049,-65.513817,-107.522636,32.468304
876,2527542390,33.295601,13.374488,-29.074078,0.391477,1.554942,-0.555681,-69.005119,-103.187782,38.868927
877,2527559057,31.945288,11.602283,-29.324257,0.903921,1.475515,-0.159686,-76.251396,-98.616341,44.956009
878,2527575724,30.501869,9.840975,-29.429335,0.879664,1.017540,-0.310475,-83.914124,-94.746284,49.452049
879,2527592391,28.889023,8.126459,-29.419342,0.954719,0.793982,-0.797335,-95.348747,-90.234360,51.440838
880,2527609058,27.013931,6.513524,-29.289989,1.232257,0.698195,-0.962847,-111.982384,-83.049171,52.117653
881,2527625725,24.855947,5.023651,-29.014124,1.534202,0.664315,-0.471463,-129.634048,-74.362305,53.852951
882,2527642392,22.583454,3.630653,-28.580513,1.495199,0.387416,-0.034613,-136.809128,-67.258896,57.313339
883,2527659059,20.629761,2.271559,-27.977545,1.506531,0.159903,-0.402176,-117.587051,-63.685879,63.549633
884,2527675726,19.031000,0.953099,-27.167276,1.601392,-0.332537,-1.814561,-95.800758,-59.104546,72.465927
885,2527692393,17.577230,-0.232605,-26.179668,2.056501,-0.929833,-2.395669,-86.112137,-50.102062,78.512215
886,2527709060,16.137028,-1.214492,-25.096855,1.936944,-1.233196,-1.915306,-84.107704,-38.707882,79.158005
887,2527725727,14.757093,-2.011608,-23.951180,1.894610,-1.328495,-0.837712,-79.379875,-28.956123,78.866089
888,2527742394,13.497980,-2.673852,-22.739733,2.270345,-1.120600,-0.161870,-71.095879,-21.958588,80.019272
889,2527759061,12.334913,-3.222992,-21.461430,2.514862,-0.983826,-0.153109,-64.361664,-16.137863,81.913643
890,2527775728,11.285540,-3.668470,-20.106182,2.532658,-1.194901,-0.625715,-56.601143,-10.687717,84.800690
891,2527792395,10.392304,-4.026620,-18.658527,2.473659,-1.558101,-1.138985,-46.293594,-5.937351,89.035606
892,2527809062,9.677157,-4.309711,-17.115005,2.522282,-1.893665,-1.311291,-34.705654,-1.750946,93.787292
893,2527825729,9.168165,-4.556817,-15.482553,2.816921,-2.021046,-1.207292,-21.496475,0.250725,98.635750
894,2527842396,8.878028,-4.791688,-13.788313,3.486495,-1.743868,-1.022384,-7.651475,0.871652,102.140656
895,2527859063,8.792967,-5.026025,-12.109104,4.044066,-1.664438,-0.691202,4.990668,0.437667,101.213692
896,2527875730,8.960624,-5.227965,-10.573191,4.395681,-2.224550,-0.314269,19.767447,1.119137,92.417450
897,2527892397,9.478030,-5.351062,-9.330487,4.592322,-2.881242,-0.296573,39.394516,3.547633,74.329926
898,2527909064,10.475809,-5.330483,-8.506748,4.524566,-3.315022,-0.991899,65.951118,8.701038,48.108261
899,2527925731,11.943206,-5.183211,-8.136365,3.848254,-2.923995,-1.634361,91.574844,11.947157,19.846554
900,2527942398,13.764229,-4.953732,-8.230256,3.585813,-2.284729,-1.715472,110.267006,11.167885,-8.680445
901,2527959065,15.959215,-4.632717,-8.790488,3.819522,-2.295627,-1.411414,130.399277,9.031851,-37.469467
902,2527975732,18.542530,-4.207505,-9.793603,3.974547,-2.127285,-0.929791,151.872162,5.591912,-65.035370
903,2527992399,21.373594,-3.705099,-11.152766,3.849399,-1.691194,-0.985033,165.749786,-0.397507,-86.927086
904,2528009066,24.317505,-3.114385,-12.746206,3.910801,-1.234321,-1.165477,172.459167,-5.340030,-101.892616
905,2528025733,27.253555,-2.409675,-14.458735,3.743715,-0.576116,-1.251567,172.719238,-7.506931,-110.997070
906,2528042400,30.073713,-1.611929,-16.199945,3.664685,-0.242600,-1.026368,167.048111,-9.002314,-114.773705
907,2528059067,32.815514,-0.714456,-17.909897,3.712443,-0.632945,-0.896637,163.923492,-8.480521,-115.821472
908,2528075734,35.550518,0.289340,-19.560673,3.453100,-0.882621,-0.783441,165.224319,-6.722854,-116.002769
909,2528092401,38.305256,1.360028,-21.154667,2.814740,-0.912906,-0.669572,168.149445,-6.990654,-115.286507
910,2528109068,41.082489,2.457229,-22.687820,1.887657,-0.763806,-0.615798,171.180954,-8.946487,-113.046997
911,2528125735,43.921852,3.526598,-24.147879,1.249884,-0.609892,-0.628570,176.413788,-12.682767,-108.117859
912,2528142402,46.837059,4.559809,-25.524302,1.145965,-0.557344,-0.757792,182.210907,-15.972297,-102.270401
913,2528159069,49.847382,5.582447,-26.808359,1.234170,-0.603002,-0.824204,188.902740,-17.435629,-97.144913
914,2528175736,53.063599,6.611225,-28.007458,0.840603,-0.643937,-0.910645,202.082687,-18.376741,-93.163559
915,2528192403,56.555351,7.642250,-29.120163,0.300682,-0.154964,-0.844949,219.252380,-19.380537,-89.052711
916,2528209070,60.194130,8.668019,-30.122057,0.030094,0.795476,-0.772893,228.315277,-19.294369,-83.935829
917,2528225737,63.810707,9.695416,-30.968317,0.104363,1.616322,-0.297111,226.552429,-16.232521,-78.293228
918,2528242404,67.266785,10.735560,-31.620344,0.365201,1.612589,0.087103,215.752640,-10.127286,-73.086136
919,2528259071,70.532761,11.803845,-32.050404,0.067365,1.345025,0.265081,202.445389,-1.469330,-69.248817
920,2528275738,73.499710,12.892542,-32.278301,-0.399115,1.233915,0.161498,182.380051,6.516551,-66.593788
921,2528292405,76.071991,13.998870,-32.314053,-0.299864,1.574230,0.394610,156.270325,14.446499,-64.936249
922,2528309072,78.179466,15.111197,-32.130806,-0.397940,1.482725,0.664850,125.120285,24.272982,-63.023521
923,2528325739,79.913979,16.201649,-31.736666,-0.595213,1.092758,0.573340,99.116966,33.814877,-60.234859
924,2528342406,81.319046,17.272390,-31.156090,-0.783206,0.657569,0.888633,75.702934,42.405037,-58.267204
925,2528359073,82.370430,18.305119,-30.425642,-0.883523,0.267972,1.268265,51.126205,49.106396,-55.735916
926,2528375740,83.064415,19.301180,-29.551003,-0.864213,0.220300,1.107605,26.160173,55.863544,-53.296955
927,2528392407,83.499283,20.270903,-28.505445,-0.350719,0.105947,1.016973,6.297116,64.436760,-51.186718
928,2528409074,83.726112,21.221020,-27.282276,-0.295907,0.084599,0.738142,-10.942782,73.555603,-49.324051
929,2528425741,83.901276,22.124832,-25.901466,-0.527837,0.013400,0.321662,-18.638010,81.395149,-45.919426
930,2528442408,84.207108,22.957832,-24.409161,-0.731601,0.275498,-0.176291,-14.521742,86.437462,-41.445812
931,2528459075,84.705872,23.713926,-22.825186,-0.758185,0.783868,-0.383807,-6.266625,90.245834,-37.020744
932,2528475742,85.433800,24.378420,-21.158266,-1.014289,0.940594,-0.582041,4.377624,93.430809,-32.163826
933,2528492409,86.420113,24.941519,-19.436169,-1.214254,0.942929,-0.604239,17.522686,95.070442,-27.317711
934,2528509076,87.676132,25.393419,-17.670269,-1.416842,0.940565,-0.680880,31.758410,96.166870,-22.419443
935,2528525743,89.142082,25.732145,-15.872396,-1.526940,0.984103,-0.417088,42.864681,96.840248,-17.886921
936,2528542410,90.660110,25.958595,-14.054638,-1.717372,0.784023,0.025416,44.991673,97.175804,-13.682648
937,2528559077,92.081017,26.077759,-12.256474,-2.077382,0.575169,0.424440,39.388603,95.746941,-9.723502
938,2528575744,93.324516,26.096582,-10.511926,-2.479019,0.318925,0.756621,30.043957,92.844849,-5.807978
939,2528592411,94.334923,26.020712,-8.874602,-2.920725,0.122986,1.076347,18.933064,87.353691,-1.587763
940,2528609078,95.056328,25.863232,-7.372738,-3.332630,-0.025777,1.283151,5.332206,80.530731,2.561937
941,2528625745,95.479073,25.635525,-6.041698,-3.809324,-0.039574,1.511369,-7.857942,71.881310,6.794887
942,2528642412,95.698235,25.353542,-4.923474,-4.484465,-0.248204,1.431476,-14.255731,60.925499,10.753228
943,2528659079,95.787773,25.046904,-4.059149,-4.986762,-0.428657,1.293605,-15.232695,47.536884,13.443817
944,2528675746,95.789894,24.745001,-3.481943,-5.282680,-0.707931,1.045475,-12.975471,32.098755,14.710131
945,2528692413,95.755219,24.487879,-3.197891,-5.608313,-0.903586,0.639386,-7.699241,15.988582,13.672690
946,2528709080,95.682564,24.300854,-3.188539,-5.749204,-1.012712,0.305995,-3.106591,0.655500,11.022156
947,2528725747,95.532104,24.192209,-3.425172,-5.651608,-0.987811,0.300428,-1.713107,-13.210439,7.685500
948,2528742414,95.244812,24.157621,-3.860691,-5.345755,-0.999773,0.497898,-5.045560,-24.493546,4.264697
949,2528759081,94.800560,24.179750,-4.445055,-4.988925,-1.088176,0.713200,-10.805736,-32.929588,1.461294
950,2528775748,94.137207,24.239695,-5.145691,-4.746420,-1.073919,0.709282,-21.060410,-39.445747,-0.591312
951,2528792415,93.268341,24.322216,-5.952411,-4.937960,-1.215851,0.457265,-30.719978,-45.283958,-2.063432
952,2528809082,92.201958,24.417540,-6.857069,-4.977969,-0.943380,0.339142,-40.069706,-50.590401,-3.302345
953,2528825749,90.920769,24.490541,-7.805995,-4.634145,-0.488834,0.550484,-51.775883,-52.854664,-2.892498
954,2528842416,89.430717,24.507624,-8.764328,-4.439948,-0.205185,0.754718,-64.030037,-53.253693,-0.769565
955,2528859083,87.894264,24.411642,-9.690042,-3.924497,0.060643,1.240885,-67.651207,-51.608212,4.693872
956,2528875750,86.318855,24.181124,-10.561287,-3.429326,-0.319480,1.800523,-71.474548,-49.216095,11.543513
957,2528892417,84.880333,23.809547,-11.425062,-3.083244,-0.468984,1.503604,-63.687035,-49.854523,18.746601
958,2528909084,83.675484,23.320330,-12.274915,-2.591055,-0.519100,1.535239,-50.346416,-50.376450,24.710789
959,2528925751,82.591888,22.760265,-13.084571,-2.341523,0.164971,1.181623,-44.436634,-49.346764,28.193001
960,2528942418,81.596268,22.142120,-13.801023,-1.729720,0.238010,1.200510,-41.750443,-45.404667,31.456665
961,2528959085,80.762222,21.457232,-14.397033,-1.265938,0.315793,1.173522,-35.186714,-40.067806,35.707790
962,2528975752,80.129402,20.693510,-14.834207,-0.392725,0.797742,1.409630,-26.958469,-32.703815,41.322140
963,2528992419,79.616798,19.837574,-15.088390,-0.044485,1.225955,0.976736,-23.894726,-24.084787,48.238426
964,2529009086,79.154259,18.922825,-15.159696,0.446550,1.228319,0.700445,-24.756073,-15.057646,53.399456
965,2529025753,78.614357,17.989729,-15.090345,0.493352,1.056508,0.369723,-32.142223,-7.906771,55.890682
966,2529042420,77.898178,17.036091,-14.914089,0.709255,0.501589,0.633992,-44.586300,-2.763432,58.266235
967,2529059087,77.070267,16.068338,-14.660288,0.942855,0.449167,0.511893,-52.448200,0.661418,60.036201
968,2529075754,76.103676,15.066226,-14.291291,1.213209,0.986556,0.176770,-62.378399,5.789228,63.617344
969,2529092421,74.967880,14.036775,-13.761439,1.503358,0.936966,-0.345546,-74.580734,13.346667,67.672195
970,2529109088,73.740021,12.992321,-13.056607,1.658451,0.507477,-0.254357,-82.006920,21.659723,71.603432
971,2529125755,72.415100,11.890332,-12.188390,1.683457,0.163380,0.097591,-89.175896,28.378918,78.223549
972,2529142422,71.072746,10.680622,-11.129598,1.706757,0.266462,0.140372,-91.436958,35.375389,88.595161
973,2529159089,69.743019,9.369993,-9.823474,1.731086,1.231890,-1.229071,-91.896027,45.277161,100.102219
974,2529175756,68.342331,8.032416,-8.248572,1.939591,1.609121,-2.705541,-96.818344,57.458187,108.483238
975,2529192423,66.819328,6.792521,-6.459837,2.115768,0.729881,-3.412216,-103.721321,68.936592,109.477425
976,2529209090,65.467834,5.712631,-4.540626,2.734924,-0.083338,-3.050547,-92.139328,77.398735,105.655807
977,2529225757,64.390221,4.755067,-2.534160,3.408741,-0.492969,-2.143124,-74.159279,83.162300,102.929306
978,2529242424,63.719402,3.857067,-0.432660,4.109085,-0.509888,-1.904532,-48.245113,88.403671,103.526199
979,2529259091,63.487442,3.005249,1.758455,4.631920,-0.156422,-2.372856,-20.322420,93.746437,104.168587
980,2529275758,63.624523,2.239947,4.010309,4.752173,0.046652,-2.827857,3.496938,99.323212,101.239258
981,2529292425,64.129135,1.564906,6.245926,4.525071,0.071514,-3.103655,27.271168,101.472755,95.393188
982,2529309092,65.020447,0.948734,8.379186,4.548903,0.538848,-3.124477,52.111355,98.641815,88.305405
983,2529325759,66.297836,0.375740,10.319202,4.440537,0.732703,-3.010826,76.734840,90.834846,79.253517
984,2529342426,67.908607,-0.119392,11.915168,3.876456,0.519991,-2.880615,97.869438,75.620697,64.559540
985,2529359093,69.759377,-0.472141,13.025121,3.022606,0.118876,-2.507680,112.829536,53.435482,43.700871
986,2529375760,71.761185,-0.632340,13.508229,1.949971,-0.653618,-2.563963,121.833282,23.178949,18.528078
987,2529392427,73.738342,-0.563578,13.302071,1.435486,-0.728868,-2.231517,119.952003,-11.606723,-7.715595
988,2529409094,75.443962,-0.264771,12.466180,1.483288,0.196030,-1.416929,103.431770,-44.593250,-30.721901
989,2529425761,76.707237,0.238213,11.158570,2.056365,0.970128,-0.531581,77.235619,-69.900230,-48.292854
990,2529442428,77.569260,0.909485,9.526358,3.054573,0.998961,-0.424270,54.157021,-87.515984,-61.196686
991,2529459095,78.166679,1.723247,7.713327,3.607213,1.088089,-0.621492,39.798145,-97.071671,-70.739174
992,2529475762,78.642464,2.625244,5.847699,3.088958,1.528401,-0.912684,34.245457,-99.706520,-75.667946
993,2529492429,79.037048,3.490413,3.992700,2.421958,1.792135,-0.902182,31.057198,-99.996437,-72.627274
994,2529509096,79.414627,4.312059,2.185718,2.508664,1.683998,-0.867797,31.465719,-98.053032,-68.853340
995,2529525763,79.852150,5.142393,0.435403,2.783206,0.656868,-0.834166,36.333881,-95.001595,-68.058189
996,2529542430,80.359154,6.020943,-1.328757,2.572345,-0.403443,-0.791266,42.135674,-95.733047,-70.262924
997,2529559097,80.930344,6.924537,-3.191859,2.206175,-0.774345,-0.791956,48.292839,-101.793854,-71.796013
998,2529575764,81.505104,7.846467,-5.143390,2.315961,-0.329732,-0.550046,50.958130,-107.320961,-72.651909
999,2529592431,82.024673,8.751576,-7.119608,2.480786,-0.214496,-0.096543,49.708309,-109.357498,-70.820671
1000,2529609098,82.409904,9.635546,-9.049154,2.596939,-0.288775,0.168330,43.025902,-107.056900,-68.306213
1001,2529625765,82.686707,10.491110,-10.895018,2.086172,-0.347429,0.254652,37.374477,-102.486504,-65.338295
1002,2529642432,82.846085,11.293242,-12.637996,1.652322,-0.176766,0.191582,30.732307,-96.826912,-60.981472
1003,2529659099,82.904137,12.029797,-14.271028,1.458576,0.055310,0.039611,24.695639,-90.752678,-56.069073
1004,2529675766,82.914040,12.704714,-15.795711,1.490418,0.130127,-0.567786,21.587749,-84.692383,-51.537849
1005,2529692433,82.978180,13.330654,-17.242332,1.391905,-0.187832,-0.593893,24.793625,-80.334183,-47.986263
1006,2529709100,83.174164,13.906004,-18.636326,0.893560,-0.245454,-0.502870,32.841751,-77.558266,-44.404366
1007,2529725767,83.494286,14.419677,-19.951696,0.652572,0.343030,-0.576710,39.903885,-73.452248,-39.833790
1008,2529742434,83.882477,14.865048,-21.167032,0.504962,0.781347,-0.880400,43.100811,-68.208954,-34.656204
1009,2529759101,84.434761,15.195884,-22.317099,0.105933,0.951137,-1.045184,52.402836,-65.307076,-26.869694
1010,2529775768,85.188377,15.325068,-23.462484,-0.018656,1.101770,-0.770424,64.666275,-66.366241,-14.052420
1011,2529792435,86.007332,15.197538,-24.602840,0.234890,0.755851,0.054409,68.499817,-67.446899,2.229818
1012,2529809102,86.651871,14.869792,-25.690378,0.468795,0.045822,1.000886,56.944748,-65.199471,15.260149
1013,2529825769,87.062592,14.443509,-26.644316,0.317830,-0.371696,1.218098,40.465897,-57.742023,22.172880
1014,2529842436,87.126312,14.026708,-27.428120,-0.210848,-0.469962,0.927485,16.729084,-47.843296,22.335726
1015,2529859103,86.878784,13.667145,-28.064075,-0.948666,-0.404535,0.464786,-4.375140,-39.179317,19.279404
1016,2529875770,86.435379,13.345479,-28.582987,-1.102629,-0.221880,0.674420,-17.985611,-32.395744,17.179785
1017,2529892437,85.958389,13.026467,-28.969213,-1.322841,-0.601790,0.914071,-21.982128,-24.825855,17.287176
1018,2529909104,85.634743,12.706853,-29.212177,-1.562510,-0.795477,0.806087,-14.819911,-16.616236,17.774349
1019,2529925771,85.577614,12.412455,-29.273054,-1.680189,-0.634812,0.558957,-1.269508,-5.944510,17.037928
1020,2529942438,85.734428,12.166787,-29.133736,-2.052682,-0.471783,0.390236,8.996668,5.995024,15.022549
1021,2529959105,86.043488,11.986347,-28.786711,-2.328472,-0.552154,0.641625,15.564525,18.499414,11.974702
1022,2529975772,86.500397,11.876991,-28.213669,-2.584029,-0.809320,0.702933,21.693106,32.111645,8.462412
1023,2529992439,87.136093,11.816444,-27.423134,-2.925809,-1.239633,0.391383,29.801840,45.124069,5.943610
1024,2530009106,87.926231,11.779333,-26.414364,-3.108823,-1.385326,0.383718,36.443703,58.077393,4.529239
1025,2530025773,88.487701,11.819410,-25.156805,-2.965774,-0.827450,1.455956,19.687986,72.882408,-0.326287
1026,2530042440,88.598930,11.911430,-23.627319,-3.130298,-0.309046,1.559511,-10.755104,88.910088,-3.455059
1027,2530059107,88.362961,12.025667,-21.930483,-3.856806,-0.696456,1.689377,-33.819633,98.736847,-4.413046
1028,2530075774,87.996422,12.139516,-20.253778,-4.864595,-1.659199,1.187513,-41.584888,97.537720,-3.883142
1029,2530092441,87.658371,12.281497,-18.772324,-5.217743,-2.133689,0.883171,-37.602528,86.142685,-5.373815
1030,2530109108,87.404007,12.479248,-17.609591,-5.367752,-1.908120,0.545132,-28.719191,67.602638,-9.045478
1031,2530125775,87.206833,12.749670,-16.823135,-5.359183,-0.945289,0.316176,-20.617640,45.778355,-14.139792
1032,2530142442,86.995689,13.074174,-16.420813,-5.360065,0.131644,0.180776,-16.533808,23.508835,-18.322363
1033,2530159109,86.674332,13.448165,-16.361979,-5.152308,0.881119,0.556845,-18.559673,3.700208,-22.250452
1034,2530175776,86.226646,13.854925,-16.610888,-5.115360,1.107341,0.849095,-21.801386,-13.941248,-25.261654
1035,2530192443,85.624313,14.287823,-17.158716,-5.019537,1.278841,1.133951,-26.610695,-30.932158,-28.147327
1036,2530209110,84.807732,14.755046,-17.985981,-4.976904,1.652957,0.941698,-35.011711,-46.517868,-31.886671
1037,2530225777,83.792107,15.271116,-19.071609,-4.873177,1.723121,0.570608,-42.524059,-60.505943,-36.973694
1038,2530242444,82.672897,15.822989,-20.380951,-4.609613,1.886214,0.366887,-44.551533,-72.242851,-41.686123
1039,2530259111,81.561714,16.366852,-21.859653,-4.197861,2.048773,0.460631,-40.526600,-80.953926,-43.872196
1040,2530275778,80.500427,16.853598,-23.456440,-3.884610,2.112419,0.744420,-34.738930,-87.131805,-42.994774
1041,2530292445,79.480789,17.260090,-25.145761,-3.672291,1.931460,0.776910,-29.892620,-92.188934,-40.672768
1042,2530309112,78.517387,17.580746,-26.876404,-2.770037,2.108543,1.165304,-25.154985,-94.592484,-37.584553
1043,2530325779,77.528069,17.807690,-28.584209,-2.293233,2.380218,1.413054,-26.648397,-93.686394,-33.357010
1044,2530342446,76.471909,17.907677,-30.255928,-1.685264,2.567457,1.579881,-31.040455,-92.702583,-27.087759
1045,2530359113,75.319046,17.842903,-31.894644,-1.475989,2.454457,1.281415,-37.418705,-92.742035,-18.792454
1046,2530375780,74.053093,17.603064,-33.468151,-0.200112,2.714210,1.085463,-45.643219,-91.588074,-9.621844
1047,2530392447,72.657211,17.201933,-34.903149,0.819621,2.817363,0.857137,-56.429756,-86.679474,-0.225054
1048,2530409114,71.130493,16.652540,-36.177814,0.762156,1.988883,0.779479,-67.767105,-80.873466,8.839005
1049,2530425781,69.602028,15.962917,-37.331642,0.576247,1.689723,0.543167,-70.707321,-77.583305,16.885685
1050,2530442448,68.116989,15.152976,-38.316532,1.774716,1.896084,0.212554,-71.691658,-71.740639,25.028528
1051,2530459115,66.510872,14.310703,-39.097946,3.030163,1.516761,0.380784,-82.893402,-62.456345,29.363417
1052,2530475782,64.761551,13.472445,-39.738983,2.168739,0.309868,0.556723,-94.186195,-55.904381,30.620056
1053,2530492449,62.972229,12.657332,-40.341099,1.546245,-0.459682,0.968715,-97.658104,-54.289257,28.596443
1054,2530509116,61.224869,11.838388,-40.872391,1.512554,0.134397,0.410109,-96.547195,-51.682461,29.021826
1055,2530525783,59.556969,11.020782,-41.244934,2.307643,0.392679,-0.296079,-94.116798,-44.453014,31.985527
1056,2530542450,57.910088,10.228333,-41.426258,2.278777,0.085136,-0.778077,-95.286812,-34.992599,35.234520
1057,2530559117,56.361053,9.447112,-41.413208,1.487584,-0.454035,-0.428856,-91.563362,-25.969639,39.914986
1058,2530575784,54.999790,8.629287,-41.237717,0.663899,-0.619413,0.146265,-81.825027,-20.253391,46.504967
1059,2530592451,53.862923,7.694467,-40.892654,0.152686,-0.406189,0.677442,-69.644585,-17.141069,57.644749
1060,2530609118,52.752613,6.600092,-40.392948,0.102555,-0.317427,0.331595,-68.844139,-16.566826,70.522881
1061,2530625785,51.574306,5.473180,-39.670418,0.934080,-0.952832,-0.695582,-73.753853,-8.618254,79.932999
1062,2530642452,50.303650,4.428047,-38.680378,1.928816,-1.349833,-1.035480,-79.864082,5.247330,86.061775
1063,2530659119,48.900768,3.468456,-37.392429,2.804797,-1.742585,-1.126851,-87.997269,20.213413,93.872452
1064,2530675786,47.465450,2.631417,-35.850258,2.895370,-2.594771,-1.473773,-89.552109,34.202404,99.078308
1065,2530692453,46.073460,1.929427,-34.131943,2.917208,-3.147648,-1.779623,-86.133522,45.044651,101.266647
1066,2530709120,44.777069,1.367596,-32.332809,3.293290,-3.391895,-2.123969,-79.403587,52.056946,99.743019
1067,2530725787,43.635937,0.926477,-30.536425,3.415787,-3.627892,-2.360094,-69.137398,55.033726,95.678406
1068,2530742454,42.707310,0.587428,-28.843872,3.265361,-3.674276,-2.508010,-55.567333,53.525101,87.929726
1069,2530759121,42.023983,0.346017,-27.328686,3.126814,-3.601402,-2.673629,-40.243675,49.463951,76.866066
1070,2530775788,41.552639,0.195957,-26.066536,2.956085,-3.476817,-2.607730,-27.134157,42.677212,62.382763
1071,2530792455,41.341831,0.127384,-25.155573,2.494710,-3.542538,-2.584700,-11.288803,32.041809,43.598835
1072,2530809122,41.351280,0.129612,-24.668432,1.953956,-3.600951,-2.452345,2.028230,18.372328,21.745800
1073,2530825789,41.478443,0.188907,-24.640873,1.433936,-3.327951,-2.485624,9.168728,2.743025,-1.232330
1074,2530842456,41.683662,0.294768,-25.052326,1.600526,-2.996733,-2.476530,13.975465,-12.634950,-22.806208
1075,2530859123,41.932705,0.473052,-25.844326,2.097710,-2.858998,-2.321242,16.831898,-24.693542,-42.685856
1076,2530875790,42.202332,0.713340,-26.950842,2.357059,-2.755869,-1.850768,18.446239,-34.749134,-59.090508
1077,2530892457,42.430367,0.980263,-28.285000,2.443402,-2.336782,-1.600442,16.452950,-42.993462,-70.125542
1078,2530909124,42.579830,1.236037,-29.751099,2.657903,-2.027490,-1.611360,12.262072,-49.043224,-75.382576
1079,2530925791,42.687912,1.487299,-31.271021,2.826245,-2.113198,-1.905027,10.245670,-51.570889,-77.473160
1080,2530942458,42.843666,1.764051,-32.788544,2.954016,-2.089186,-2.030333,13.521012,-50.504456,-78.300110
1081,2530959125,43.018150,2.068995,-34.277035,2.714979,-1.936724,-1.948645,15.045299,-48.273952,-78.038368
1082,2530975792,43.097393,2.356071,-35.735039,2.199063,-1.446927,-1.631379,9.718462,-47.955742,-75.873535
1083,2530992459,43.008095,2.649825,-37.161812,2.311415,-1.311193,-1.634469,-0.037511,-46.348392,-74.779907
1084,2531009126,42.760010,3.023473,-38.543503,2.603384,-1.491507,-1.263971,-9.207717,-40.748814,-76.190765
1085,2531025793,42.544750,3.456839,-39.859402,2.177270,-1.587704,-0.559965,-6.885543,-35.097862,-75.870399
1086,2531042460,42.468468,3.844679,-41.086514,1.668529,-1.154856,-0.084032,1.671667,-33.292542,-70.181961
1087,2531059127,42.524288,4.154076,-42.212555,1.626525,-0.851348,-0.228352,9.613251,-32.632301,-62.532433
1088,2531075794,42.698746,4.414088,-43.245617,1.463512,-1.042593,-0.277719,16.641394,-31.144184,-56.358662
1089,2531092461,43.123573,4.661061,-44.190376,1.259463,-1.312019,-0.184340,31.510303,-28.394535,-51.792912
1090,2531109128,43.880951,4.920659,-45.015545,1.143534,-0.991161,0.186089,51.109463,-23.430340,-46.835648
1091,2531125795,44.849808,5.196153,-45.675560,0.724191,-0.153443,0.465345,63.148575,-16.526896,-40.094997
1092,2531142462,45.883560,5.470767,-46.144951,0.555661,0.473168,0.277813,66.163200,-9.140657,-31.769115
1093,2531159129,46.862740,5.762515,-46.425838,0.732815,0.464424,0.277491,61.913986,-0.831837,-24.592672
1094,2531175796,47.703762,6.092842,-46.530048,0.787646,0.062432,0.561594,52.613800,8.104174,-19.133810
1095,2531192463,48.467602,6.448064,-46.467628,0.711679,-0.022519,0.705279,46.923344,16.233385,-13.730968
1096,2531209130,49.217728,6.801337,-46.225163,0.726630,0.411635,0.738553,44.829887,24.052677,-6.811708
1097,2531225797,49.900867,7.121710,-45.800526,0.348138,0.967457,0.789044,39.397015,30.935795,1.408820
1098,2531242464,50.453167,7.391479,-45.209740,-0.074610,1.180901,0.542270,30.155313,36.582458,9.720797
1099,2531259131,50.919674,7.616301,-44.470882,-0.457543,1.011333,0.248042,23.690992,41.755611,17.047911
1100,2531275798,51.379887,7.800833,-43.600559,-0.452646,0.967842,0.069704,22.100863,46.439758,23.478880
1101,2531292465,51.811123,7.948043,-42.580093,-0.194723,1.172231,0.003118,18.979437,52.201443,30.401194
1102,2531309132,52.210583,8.052696,-41.396820,-0.362299,1.160810,0.116076,15.580426,58.454945,37.975948
1103,2531325799,52.670528,8.118892,-40.053226,-0.781120,0.988562,0.027949,17.752399,64.863693,45.160194
1104,2531342466,53.234364,8.166019,-38.552513,-0.860016,1.022836,-0.203729,22.574034,72.009583,51.107941
1105,2531359133,53.884102,8.211334,-36.875340,-0.712180,1.174356,-0.248515,26.152790,80.900482,56.648075
1106,2531375800,54.582001,8.246711,-34.991802,-0.522349,1.186614,-0.045627,27.202969,91.134819,63.325951
1107,2531392467,55.293167,8.252253,-32.881210,-0.049767,1.004981,0.355005,26.006584,101.906898,71.403717
1108,2531409134,56.065311,8.197751,-30.546349,0.233006,0.807692,0.826001,27.793957,111.795517,80.561760
1109,2531425801,56.797291,8.091109,-28.011881,0.304445,0.806945,1.258828,23.884350,121.012527,88.255119
1110,2531442468,57.473125,7.941003,-25.315805,-0.248678,0.873490,1.110639,19.504494,128.776428,94.178650
1111,2531459135,58.044643,7.747856,-22.514801,-0.658612,1.067725,1.007957,12.872860,133.741653,98.313370
1112,2531475802,58.521404,7.516510,-19.653839,-1.203804,1.232518,0.863907,7.328200,136.534439,100.954399
1113,2531492469,58.951077,7.248104,-16.797741,-2.008650,0.747124,0.932737,5.289260,135.999252,101.674416
1114,2531509136,59.378006,6.961461,-14.020509,-2.600254,0.469107,1.040132,6.538611,132.247757,99.252396
1115,2531525803,59.800316,6.684501,-11.367614,-3.209471,0.357441,0.999068,7.968038,126.960838,94.080688
1116,2531542470,60.215687,6.445951,-8.883478,-3.749743,0.612276,0.802868,9.425887,120.150665,86.185425
1117,2531559137,60.583382,6.278162,-6.600337,-4.286664,0.633134,0.502408,8.428964,112.447350,75.799065
1118,2531575804,60.885120,6.227291,-4.549044,-4.784893,0.558927,0.228169,6.247699,104.267731,62.299965
1119,2531592471,61.116348,6.318576,-2.756546,-5.423090,0.083037,-0.006711,3.667289,95.174271,46.896828
1120,2531609138,61.333481,6.546588,-1.275208,-5.832466,-0.319633,-0.235397,4.615439,83.000221,30.418100
1121,2531625805,61.569073,6.891279,-0.125461,-5.985534,-0.272124,-0.525137,7.608522,69.051819,14.505724
1122,2531642472,61.792107,7.337140,0.695034,-6.094232,-0.181370,-0.580527,8.824305,54.666050,-0.408706
1123,2531659139,61.946823,7.854335,1.190731,-6.020689,-0.059114,-0.360310,6.888905,39.586449,-13.462862
1124,2531675806,61.965649,8.420229,1.370369,-5.865892,0.095852,0.319359,1.137023,24.325230,-24.911180
1125,2531692473,61.788479,9.005393,1.243123,-5.613521,0.115383,0.845065,-7.945135,8.821357,-34.450806
1126,2531709140,61.338589,9.611697,0.807615,-5.333412,-0.003648,1.271733,-21.241282,-6.434298,-44.163498
1127,2531725807,60.642963,10.234412,0.060686,-5.229589,-0.300626,1.288939,-32.489052,-21.585133,-53.951164
1128,2531742474,59.742668,10.863501,-0.998182,-5.156554,-0.398813,1.156912,-40.855640,-36.543224,-63.637440
1129,2531759141,58.704956,11.472461,-2.335620,-4.887215,-0.351559,1.276080,-45.180882,-50.070637,-71.488182
1130,2531775808,57.555935,12.040698,-3.890357,-4.272296,0.167055,1.534421,-48.385166,-60.701962,-76.965225
1131,2531792475,56.274487,12.554491,-5.573989,-3.529224,0.562269,2.109003,-53.812965,-67.024033,-79.479134
1132,2531809142,54.823807,12.997327,-7.331543,-2.937720,0.724039,2.392461,-62.153976,-70.945930,-79.847450
