sep=,
DeviceTag:,DOT10
FirmwareVersion:,3.0.0
AppVersion:,2023.6.0
SyncStatus:,Synced
OutputRate:,60Hz
FilterProfile:,Dynamic
Measurement Mode:,Custom modes - custom mode1
StartTime: ,2026-06-02_18:02:05_533 GMT+2
© Movella Technologies B. V. 2005-2026

PacketCounter,SampleTimeFine,Euler_X,Euler_Y,Euler_Z,FreeAcc_X,FreeAcc_Y,FreeAcc_Z,Gyr_X,Gyr_Y,Gyr_Z
1,990744988,-53.603313,-30.147274,-178.959824,0.019935,0.306027,0.367604,-13.133445,2.893718,1.795484
2,990761655,-53.741051,-30.126186,-179.043655,0.484506,0.419251,0.342813,-9.371511,3.231011,-1.653108
3,990778322,-53.771324,-30.162586,-179.139877,0.545506,0.345475,0.121390,-3.299185,1.713611,-4.810641
4,990794989,-53.724689,-30.244678,-179.236176,0.346122,0.153334,0.006493,1.307266,0.093403,-7.025346
5,990811656,-53.636562,-30.359901,-179.350266,0.050415,0.033056,-0.084042,3.250336,-0.353929,-9.172002
6,990828323,-53.550728,-30.481895,-179.499832,-0.119705,0.007750,-0.001881,2.024422,0.859710,-10.585438
7,990844990,-53.462376,-30.588863,-179.702484,-0.293823,0.100283,0.084152,0.542010,3.581150,-11.490144
8,990861657,-53.395405,-30.662130,-179.976334,-0.386413,0.060014,0.137933,-2.932951,7.713878,-12.055009
9,990878324,-53.369625,-30.670210,179.668411,-0.262982,0.113970,0.170455,-7.906393,13.406080,-11.425032
10,990894991,-53.383621,-30.636114,179.255081,-0.060639,0.178624,0.126343,-12.063874,17.323090,-11.186473
11,990911658,-53.401310,-30.589098,178.828079,0.007370,0.080421,0.051547,-12.687073,18.362778,-10.984940
12,990928325,-53.407700,-30.557922,178.408798,0.053167,-0.084007,-0.011324,-11.760364,17.486753,-11.511868
13,990944992,-53.411453,-30.541136,178.009506,0.083664,-0.109045,-0.094092,-10.982323,16.145601,-11.591752
14,990961659,-53.414139,-30.550198,177.622879,0.141259,-0.075626,-0.120987,-10.529308,14.695791,-12.445538
15,990978326,-53.423405,-30.594139,177.253448,0.126122,-0.093194,-0.099070,-10.410552,12.733762,-13.593857
16,990994993,-53.440853,-30.637972,176.918747,0.129486,-0.157150,-0.005809,-9.855614,11.294069,-12.513051
17,991011660,-53.454887,-30.664633,176.627304,0.011411,-0.201505,0.137612,-8.337224,10.109822,-10.348092
18,991028327,-53.482964,-30.659849,176.360657,-0.093575,-0.403785,0.305931,-8.424522,10.206522,-8.066253
19,991044994,-53.540344,-30.633381,176.077072,-0.248331,-0.418064,0.354811,-10.698462,11.691730,-7.532767
20,991061661,-53.616928,-30.607946,175.753952,-0.214358,-0.473020,0.344645,-13.053200,13.307553,-8.779343
21,991078328,-53.689629,-30.611015,175.428925,-0.176704,-0.527178,0.252581,-12.872615,12.380793,-10.195814
22,991094995,-53.765430,-30.647879,175.132370,-0.178737,-0.428658,0.043303,-12.198294,10.008334,-10.941899
23,991111662,-53.907524,-30.703047,174.770340,-0.233978,-0.026693,-0.178986,-18.192640,12.101252,-13.795337
24,991128329,-54.126354,-30.736633,174.055252,-0.096780,0.869156,-0.170477,-33.629429,27.632008,-23.400066
25,991144996,-54.319359,-30.704500,172.789703,0.474167,1.032675,-0.173716,-48.952461,53.057690,-36.698177
26,991161663,-54.442760,-30.658489,171.211853,0.685028,-0.549593,-0.692312,-54.292530,66.770546,-45.281055
27,991178330,-54.522755,-30.666389,169.817398,0.945642,-1.457507,-0.954492,-46.052353,57.278393,-42.304264
28,991194997,-54.628952,-30.700659,168.685669,0.912903,-1.269476,-0.422476,-39.628780,45.389965,-35.653217
29,991211664,-54.738064,-30.699121,167.688782,1.452583,-0.151205,-0.171405,-35.682388,40.996593,-29.778778
30,991228331,-54.746166,-30.639248,166.691330,1.835220,0.549581,0.096943,-29.593786,43.058884,-26.894070
31,991244998,-54.669960,-30.522747,165.594223,1.303886,1.065145,0.395848,-27.498812,49.243378,-27.152857
32,991261665,-54.560505,-30.319244,164.383850,0.370086,0.834857,0.454660,-28.795036,57.097092,-26.446558
33,991278332,-54.571526,-30.014191,162.966751,-0.441704,0.511487,0.464560,-41.971668,69.472664,-27.842825
34,991294999,-54.770794,-29.653769,161.241089,-0.383795,0.871780,0.586977,-62.047775,84.750893,-34.434219
35,991311666,-54.975231,-29.291386,159.171707,0.387713,1.609042,0.850903,-71.934113,99.890717,-44.553303
36,991328333,-54.984695,-28.909962,156.796936,1.119538,1.789735,0.851682,-68.437744,114.060097,-52.843414
37,991345000,-54.863541,-28.547401,154.223373,1.218711,1.376455,0.584724,-65.517151,122.283829,-60.151497
38,991361667,-54.702515,-28.192335,151.523453,0.604838,0.976692,0.369281,-65.874802,127.706955,-64.940636
39,991378334,-54.550804,-27.847082,148.887619,-0.917170,0.069829,-0.102639,-63.751709,124.806549,-64.081558
40,991395001,-54.404663,-27.587776,146.447876,-1.830522,0.585080,0.369280,-57.875587,113.484230,-62.776932
41,991411668,-54.182758,-27.509602,144.113113,-1.945839,1.653707,1.633168,-50.034874,102.571198,-68.818985
42,991428335,-53.847565,-27.729017,141.760727,-1.840048,2.897867,2.497936,-43.879192,92.441681,-84.261383
43,991445002,-53.298424,-28.279795,139.392120,-1.773568,4.129763,2.873425,-32.337963,80.333015,-101.218826
44,991461669,-52.483612,-29.175089,137.047699,-1.723362,4.607325,2.706538,-17.275944,64.969215,-117.369766
45,991478336,-51.431225,-30.351206,134.644424,-1.710558,4.923720,2.252353,-6.989714,54.113544,-132.808975
46,991495003,-50.212246,-31.743687,131.990570,-1.133121,5.072146,2.147954,-7.540534,52.012680,-151.034622
47,991511670,-48.763596,-33.282604,129.101212,-0.786022,5.124859,1.951502,-4.813389,50.213264,-165.233459
48,991528337,-47.037155,-34.777645,126.105812,-0.767590,5.250696,1.420712,4.453441,49.446270,-166.477875
49,991545004,-45.217056,-35.947559,122.957108,-0.345816,5.229285,0.788956,1.316145,61.495167,-157.436356
50,991561671,-43.164501,-36.766693,119.771301,0.698206,5.048825,0.235465,11.288267,71.151680,-144.688950
51,991578338,-40.680199,-37.402309,116.845566,0.878778,4.750036,-0.484597,44.654892,64.294914,-129.737045
52,991595005,-37.919655,-37.798603,114.087219,-0.212070,4.085157,-0.615810,66.102875,63.771019,-116.592995
53,991611672,-35.149147,-37.825146,111.336746,-0.898089,4.224688,0.125427,66.509926,75.460510,-105.769913
54,991628339,-32.436092,-37.527756,108.818481,0.781377,3.932223,1.238743,71.883347,80.482269,-89.524849
55,991645006,-29.519470,-37.006954,106.461899,2.523206,4.098858,1.726994,90.825569,83.860489,-80.460548
56,991661673,-26.337067,-36.314682,104.257904,2.554933,3.480437,2.156745,113.435425,85.552856,-74.351395
57,991678340,-23.117575,-35.359348,102.276711,2.415589,2.795033,1.986758,125.016792,91.560661,-63.653095
58,991695007,-19.980953,-34.145443,100.789398,2.077106,1.298391,1.707285,138.778870,93.872047,-41.552876
59,991711674,-17.034611,-32.799484,99.756020,1.894974,-0.395699,1.919603,144.042435,92.202141,-23.524651
60,991728341,-14.140343,-31.293871,98.943863,2.161515,-1.205719,2.026349,149.257263,97.317162,-15.642834
61,991745008,-11.085448,-29.784000,98.381592,0.944619,-1.572022,2.636776,167.611954,93.953079,-8.719727
62,991761675,-7.959004,-28.225090,98.354118,-0.676229,0.827923,2.455365,188.252716,91.680656,13.900459
63,991778342,-5.363786,-26.138826,98.818138,-0.177725,0.803253,1.625905,169.886398,120.655609,38.951946
64,991795009,-3.898029,-23.722492,99.610756,0.109499,-5.478265,1.171818,109.460258,140.212662,54.523712
65,991811676,-3.539031,-21.353460,100.856331,0.372373,-6.847556,0.046656,51.671463,136.525711,77.939629
66,991828343,-3.926331,-19.171953,102.544487,0.528287,-7.104015,-1.101266,13.332885,123.558289,103.165794
67,991845010,-5.024439,-17.228392,104.534340,0.240004,-8.176796,-2.220096,-27.087568,106.512566,122.016479
68,991861677,-7.166824,-15.464899,106.599648,0.201208,-10.064735,-3.454822,-92.147858,91.664497,129.322403
69,991878344,-10.309872,-14.050018,108.248840,0.370024,-11.544639,-4.088493,-161.865341,68.428947,107.332771
70,991895011,-14.312179,-13.203343,108.997116,-0.616678,-11.696167,-4.227361,-228.071991,39.359589,53.320396
71,991911678,-18.895922,-13.087811,108.712288,-2.169378,-11.323227,-4.927023,-277.440582,10.390913,-14.115726
72,991928345,-23.542234,-13.864507,107.515083,-2.700790,-11.118519,-5.782510,-294.051178,-19.204603,-82.155678
73,991945012,-27.579487,-15.654519,105.771599,-1.827651,-11.194732,-4.941886,-267.411407,-54.322342,-137.773926
74,991961679,-30.647398,-18.413542,103.793480,-1.012097,-11.008551,-4.154737,-217.368637,-90.511772,-179.875336
75,991978346,-32.749165,-21.874477,101.886269,-1.006375,-10.359773,-3.529066,-164.046661,-121.359032,-200.698166
76,991995013,-34.100464,-25.718586,100.219803,-1.348816,-9.247611,-3.296158,-119.981918,-143.247345,-203.614975
77,992011680,-34.951248,-29.808756,98.902489,-2.001649,-7.603767,-3.605747,-86.428406,-163.728882,-196.912460
78,992028347,-35.502979,-34.064297,98.218903,-1.650732,-6.421242,-3.763506,-53.366333,-189.712952,-175.914658
79,992045014,-35.999275,-38.405937,98.242012,-0.997430,-5.591047,-3.862051,-27.524408,-213.301147,-151.499237
80,992061681,-36.730591,-42.717846,99.121574,-0.455887,-4.890101,-4.381365,-8.109461,-233.358765,-121.311554
81,992078348,-37.949543,-46.814548,101.127342,0.056487,-4.071568,-4.923602,13.091247,-248.505264,-81.335907
82,992095015,-39.836342,-50.497017,104.379700,0.357029,-3.271111,-4.573314,34.794327,-254.136154,-38.551785
83,992111682,-42.426174,-53.600025,108.677040,-0.192573,-2.501422,-3.680637,49.433838,-245.741791,-3.170184
84,992128349,-45.764763,-55.929256,113.788658,-0.295975,-1.528447,-2.776438,51.686699,-224.688354,29.685116
85,992145016,-49.436852,-57.350578,119.196556,0.539343,-0.513865,-1.181999,52.155987,-190.483459,57.169502
86,992161683,-52.560356,-57.763367,123.848595,2.026139,0.244281,1.206035,49.570053,-133.223724,74.786461
87,992178350,-54.652321,-57.336098,127.366623,2.775097,-0.529314,2.205957,53.999233,-77.254814,87.618683
88,992195017,-55.796120,-56.208736,130.185989,1.865723,-0.507410,3.303090,74.264626,-38.865776,108.213013
89,992211684,-56.812866,-54.328014,133.122467,2.056677,-0.197720,3.939412,85.174011,-22.225893,149.347336
90,992228351,-57.880505,-51.844799,136.166428,4.067289,0.141708,3.751042,83.340927,-13.279484,184.391937
91,992245018,-58.715549,-49.071266,139.255051,5.501329,1.585934,3.314945,94.176872,-14.243372,203.337494
92,992261685,-59.104927,-46.251625,142.380692,5.027605,2.134101,2.942127,116.613609,-22.110605,209.853546
93,992278352,-59.217442,-43.507416,145.937332,4.652543,1.671048,2.785163,145.162674,-46.725780,218.629776
94,992295019,-58.928566,-40.898861,149.928925,5.479672,2.592679,2.670306,179.514969,-73.026428,225.169983
95,992311686,-58.477821,-38.450485,154.228012,5.423976,3.049697,2.776599,193.012085,-94.608742,228.389297
96,992328353,-57.924034,-36.215584,158.714890,5.136191,4.266314,2.602722,197.772003,-112.534882,226.496719
97,992345020,-57.206589,-34.271736,163.186768,3.821701,5.193975,2.277305,199.145889,-123.639160,215.707001
98,992361687,-56.411678,-32.587994,167.542435,1.934949,5.225972,1.881306,192.937225,-128.438004,203.691269
99,992378354,-55.634502,-31.072836,171.594589,0.343139,4.831109,1.537909,176.126587,-121.685448,190.592300
100,992395021,-54.998444,-29.701313,175.349350,-0.172607,4.344221,1.236135,153.396149,-114.143311,178.027405
101,992411688,-54.544975,-28.503939,178.840179,-0.753882,4.445329,0.998658,130.370621,-109.204819,164.041428
102,992428355,-54.377235,-27.439913,-178.018845,-1.307267,5.253967,0.454009,99.758751,-99.458954,148.493271
103,992445022,-54.468876,-26.507500,-175.520645,-2.662258,5.751101,-0.369022,63.805901,-77.209633,123.028648
104,992461689,-54.728153,-25.824331,-173.879013,-4.324906,5.021089,-1.221210,29.212242,-49.403488,84.440842
105,992478356,-55.046753,-25.381865,-172.965530,-6.059505,4.482231,-1.236744,5.918438,-26.234810,49.973309
106,992495023,-55.380733,-25.016409,-172.812424,-5.878438,5.502448,0.682430,-14.760085,4.623636,22.592146
107,992511690,-55.558857,-24.796589,-173.424423,-4.655492,6.839717,2.397491,-24.760199,33.867027,-8.162051
108,992528357,-55.373161,-24.876234,-174.418793,-4.348201,6.630632,3.271904,-12.508248,40.861866,-34.775787
109,992545024,-54.839668,-25.304424,-175.497253,-5.235219,5.475151,3.246404,6.001859,32.347496,-54.735359
110,992561691,-54.284935,-26.001028,-176.769821,-6.067747,4.739116,2.493738,1.675012,30.835217,-74.093590
111,992578358,-53.835567,-26.887531,-178.444748,-6.436677,4.714134,1.783059,-16.333975,40.636639,-95.995941
112,992595025,-53.375576,-27.987339,179.335983,-6.269595,5.255536,1.427822,-32.282402,54.988537,-123.338913
113,992611692,-52.736095,-29.299469,176.497116,-6.006504,5.631130,1.018276,-41.806282,71.190948,-152.854950
114,992628359,-51.913986,-30.719122,173.097855,-5.732335,5.784675,0.765345,-51.199509,86.778625,-175.425903
115,992645026,-51.101448,-32.085060,169.281265,-5.212365,6.621144,0.857155,-69.081078,101.040878,-185.853699
116,992661693,-50.501160,-33.279583,165.100189,-4.067051,8.206387,0.895693,-97.951805,117.412567,-189.031265
117,992678360,-50.182823,-34.245712,160.472397,-2.002002,9.512507,0.536944,-133.710236,139.811951,-191.984985
118,992695027,-49.968922,-34.989780,155.445374,-0.624120,10.144879,-0.354217,-157.004761,160.811356,-193.572784
119,992711694,-49.803635,-35.544964,150.206650,-0.254489,9.990537,-0.127964,-170.053757,173.912552,-190.859818
120,992728361,-49.555630,-35.762638,144.683609,-0.449210,10.398907,1.633136,-176.764160,195.961136,-184.227966
121,992745028,-49.207359,-35.534679,138.602142,1.997701,10.051905,3.527242,-190.259109,233.078979,-182.696991
122,992761695,-48.296230,-35.031837,132.163559,5.800519,7.648898,5.014504,-167.000443,256.085571,-185.282455
123,992778362,-46.500988,-34.433022,125.890251,7.115679,4.022840,5.412870,-105.304680,251.099503,-182.984787
124,992795029,-44.190868,-33.841675,120.206429,6.420066,1.249932,5.224547,-51.364357,224.841660,-173.209152
125,992811696,-41.590614,-33.191311,115.285164,4.486538,0.251180,4.847780,-5.597826,195.236374,-153.860840
126,992828363,-38.899464,-32.479435,111.226463,2.983913,-1.023984,4.578969,30.849670,163.918732,-128.672180
127,992845030,-36.419342,-31.560432,108.338120,2.865263,-1.139896,4.469087,58.368221,132.548538,-82.726624
128,992861697,-33.901215,-30.471687,106.342865,4.465212,-1.791797,3.157123,90.856689,111.612076,-46.358852
129,992878364,-30.679089,-29.367378,105.051552,4.263645,-0.675977,1.096795,156.141083,91.010399,-21.484495
130,992895031,-26.717070,-28.184683,104.372795,4.828912,-1.496344,0.447574,219.578888,78.512558,2.641259
131,992911698,-22.437437,-27.048260,104.224388,5.538296,-4.702272,0.104831,254.120117,64.408073,21.053082
132,992928365,-18.605076,-26.025053,104.322975,5.076093,-6.043710,-2.064585,234.058670,54.741756,26.330128
133,992945032,-15.315638,-25.175592,105.062737,2.052360,-5.635891,-2.944390,218.021164,36.152946,52.993866
134,992961699,-12.620682,-24.665190,106.634605,0.075437,-4.878150,-3.598023,202.914215,8.126653,90.242317
135,992978366,-10.840000,-24.092091,109.020241,-1.182921,-5.093323,-3.637249,167.391815,6.199493,134.480896
136,992995033,-10.874496,-22.980650,111.716568,-0.664122,-7.926750,-4.576252,64.018616,36.568882,158.060806
137,993011700,-12.674151,-21.223047,114.459412,0.182164,-9.801856,-6.248316,-44.548492,71.113312,170.630814
138,993028367,-15.783720,-18.938318,116.890915,-0.146758,-10.108432,-6.199653,-134.955093,98.177513,166.367874
139,993045034,-20.030340,-16.119690,118.713730,-1.177035,-9.385800,-5.909128,-220.313416,127.845818,151.107956
140,993061701,-24.674444,-13.061605,119.729996,-1.589504,-7.918466,-5.634786,-261.747406,146.256134,124.236153
141,993078368,-29.308010,-10.191795,119.991508,-2.044924,-6.857624,-5.726481,-273.338226,145.462967,91.708885
142,993095035,-33.811668,-7.848376,119.640274,-1.827640,-5.058957,-5.934487,-272.033813,129.689590,55.726105
143,993111702,-37.773735,-6.338663,118.894882,-1.719099,-3.752755,-5.598807,-241.786209,98.414543,16.820015
144,993128369,-40.852116,-5.905045,117.955742,-1.737399,-3.827932,-5.254045,-189.266449,54.585739,-27.016006
145,993145036,-42.977894,-6.530766,116.981133,-2.378549,-4.899304,-5.713305,-132.440002,9.854935,-68.495331
146,993161703,-44.276752,-8.064996,115.967285,-2.014383,-5.538513,-5.757360,-84.220528,-26.046034,-107.342148
147,993178370,-44.530670,-10.359457,114.761711,-0.329678,-6.588604,-5.173304,-25.385857,-49.431911,-147.494400
148,993195037,-43.578201,-13.165981,113.489410,-1.159729,-7.774997,-4.814792,42.996632,-70.099106,-170.953171
149,993211704,-42.179405,-16.028563,112.233665,-3.749027,-8.335573,-4.560811,66.342949,-77.305817,-170.449783
150,993228371,-41.353207,-18.486475,111.020439,-4.519691,-7.768120,-3.196536,29.383532,-64.747017,-150.241470
151,993245038,-41.441765,-20.468014,109.772209,-2.888249,-6.632110,-1.034599,-28.866695,-43.567017,-131.734146
152,993261705,-42.348961,-22.333782,108.593979,-0.583160,-5.977758,-0.541737,-78.802078,-40.454147,-123.898483
153,993278372,-43.770134,-24.318470,108.118950,0.035504,-7.337519,0.887695,-95.124130,-70.224197,-100.579285
154,993295039,-45.917305,-26.199615,108.061966,0.438108,-6.249107,3.427557,-128.855896,-78.934677,-81.949471
155,993311706,-48.207222,-28.062229,107.952057,-0.011338,-4.140147,4.720926,-138.962967,-72.928711,-85.978348
156,993328373,-50.297726,-29.974804,107.881035,-2.676659,-2.715063,5.774513,-126.055115,-73.177422,-89.534584
157,993345040,-52.569080,-31.584400,107.876251,-3.543468,-1.933304,6.014364,-134.996368,-61.100735,-75.838753
158,993361707,-54.788605,-32.900658,108.234924,-1.823247,-2.985487,6.265291,-120.261436,-62.529671,-53.017838
159,993378374,-56.505363,-34.312786,109.184555,-0.265698,-4.450377,5.954453,-70.035088,-88.075829,-43.332932
160,993395041,-57.824818,-35.803299,111.037079,1.026214,-4.258564,4.655307,-13.885295,-126.020012,-25.966097
161,993411708,-58.904728,-37.160648,113.701973,2.703120,-3.223231,3.225617,31.707184,-153.247482,-2.058696
162,993428375,-59.728237,-38.328735,117.033623,4.247988,-2.623680,2.050081,74.390373,-172.768051,20.237427
163,993445042,-60.254230,-39.338017,120.921700,5.082863,-2.262214,0.969212,116.153122,-188.710266,38.298870
164,993461709,-60.611263,-40.133362,125.239555,4.865288,-1.476764,-0.130030,145.617065,-197.888763,56.653797
165,993478376,-60.938587,-40.619560,129.796021,5.240451,-0.781605,-0.800000,158.889069,-197.058792,76.072495
166,993495043,-61.252018,-40.737877,134.478363,5.376984,0.643535,-0.673526,165.737930,-191.007751,96.602661
167,993511710,-61.432983,-40.435055,139.046234,5.603416,1.667153,-0.382313,168.875198,-174.994919,115.586189
168,993528377,-61.477310,-39.924320,143.641571,6.164009,1.390928,-0.493970,176.644135,-171.468140,127.399475
169,993545044,-61.285934,-39.275631,148.450714,6.281175,2.531495,0.144849,196.822372,-177.595276,140.474731
170,993561711,-60.910801,-38.534843,153.345764,5.863648,3.734058,-0.136738,208.370926,-179.676025,149.189301
171,993578378,-60.492001,-37.627750,158.183609,5.566249,3.857525,-0.162398,205.568497,-173.689560,159.086365
172,993595045,-60.049324,-36.647072,162.891296,5.514061,4.606564,-0.203754,198.506195,-167.432220,162.578445
173,993611712,-59.540852,-35.702766,167.517715,4.760819,5.158061,0.067229,195.761246,-166.206894,161.509262
174,993628379,-59.020805,-34.897179,172.028168,3.991784,5.734247,0.456609,188.994095,-166.240753,154.196671
175,993645046,-58.503071,-34.167938,176.331558,2.673047,6.036891,0.692916,178.843414,-160.227661,147.539948
176,993661713,-58.102779,-33.513466,-179.669724,2.490247,6.119254,0.353861,159.043335,-149.961975,137.939026
177,993678380,-57.776421,-32.907433,-175.876892,1.625258,6.036435,0.147235,145.646301,-143.097504,131.706207
178,993695047,-57.561699,-32.307011,-172.289810,0.571216,5.695949,0.092124,130.285141,-134.960571,127.225128
179,993711714,-57.449932,-31.708567,-168.923798,-0.376179,5.397068,0.187987,115.183708,-126.188919,122.111298
180,993728381,-57.392456,-31.131725,-165.761612,-1.290122,5.294874,0.659611,103.788139,-118.822578,116.169868
181,993745048,-57.336353,-30.602814,-162.790894,-2.663897,5.240539,1.088533,96.245544,-112.746712,109.059937
182,993761715,-57.257725,-30.174414,-160.063446,-3.772989,5.090047,1.466702,88.937851,-105.919975,97.727592
183,993778382,-57.144070,-29.881098,-157.641006,-4.991423,4.646286,1.413300,80.991982,-97.255287,82.789711
184,993795049,-57.056694,-29.710541,-155.615173,-5.808181,4.064277,1.331322,67.087280,-84.020363,65.724380
185,993811716,-57.023685,-29.639032,-154.044586,-6.356508,3.349607,1.089250,50.084763,-67.374298,47.984970
186,993828383,-57.016869,-29.648056,-152.953079,-6.846714,2.865979,0.938688,34.253349,-49.047997,30.370539
187,993845050,-57.001919,-29.811274,-152.352127,-6.857383,2.309357,0.771170,20.236275,-32.599403,8.680812
188,993861717,-56.976933,-30.108419,-152.231552,-6.861101,1.868342,0.799711,6.573542,-15.972565,-11.685287
189,993878384,-56.981983,-30.577087,-152.536209,-6.028896,2.229313,0.596446,-8.070912,-3.098854,-32.320683
190,993895051,-56.691784,-31.320892,-153.203201,-6.690633,2.152214,1.162813,-1.699038,3.316606,-56.274448
191,993911718,-56.472527,-32.031326,-154.861832,-7.177776,0.981668,1.137063,-37.633923,46.222351,-82.360367
192,993928385,-56.237320,-32.733665,-157.328018,-6.078937,2.890675,0.933229,-63.661354,79.687981,-104.442604
193,993945052,-55.764763,-33.442684,-160.504807,-5.369999,3.363132,0.728093,-74.231285,107.619125,-124.685638
194,993961719,-55.085300,-34.047932,-164.272522,-4.761643,3.966604,0.315754,-83.344475,133.185608,-136.688919
195,993978386,-54.234634,-34.541092,-168.531403,-3.448376,4.387214,-0.119115,-91.474861,154.108582,-146.356003
196,993995053,-53.116249,-34.972683,-173.032074,-2.745403,4.711903,-0.250837,-85.388374,162.421661,-152.385559
197,994011720,-51.828491,-35.315620,-177.755325,-1.774318,4.302429,-0.239201,-84.414902,170.260544,-157.577408
198,994028387,-50.377754,-35.545246,177.351959,-1.761470,4.199731,0.182750,-81.693390,176.528473,-161.022842
199,994045054,-48.969288,-35.621769,172.297455,-0.750167,4.172033,0.293368,-90.517250,184.071442,-163.212936
200,994061721,-47.575649,-35.635788,167.346786,0.515808,4.141642,0.630973,-87.969055,178.638382,-161.423676
201,994078388,-46.166096,-35.646938,162.608139,1.119976,3.889321,1.016451,-79.658813,167.193054,-158.555679
202,994095055,-44.855942,-35.604534,157.927353,1.717932,3.715656,1.217534,-83.534889,163.655502,-158.265656
203,994111722,-43.566833,-35.561646,153.505417,3.016676,3.438074,1.161145,-75.584282,151.324493,-152.970184
204,994128389,-42.151913,-35.568211,149.369797,3.484516,2.847190,1.063923,-57.977863,136.032684,-148.334274
205,994145056,-40.686985,-35.610756,145.411362,3.941599,1.823891,1.090918,-48.882324,124.892853,-146.636261
206,994161723,-39.283356,-35.658043,141.611786,4.593081,0.889104,1.256540,-47.151688,115.916573,-143.901688
207,994178390,-38.054195,-35.688263,137.984375,4.900523,0.159472,1.038919,-51.720943,108.085968,-139.296371
208,994195057,-36.875504,-35.686043,134.491165,4.443985,0.299029,0.213487,-50.094925,102.685211,-135.159637
209,994211724,-35.619286,-35.685780,131.339722,4.346649,-0.686725,-0.207899,-33.475700,89.850410,-123.973427
210,994228391,-34.021053,-35.750015,128.455048,3.057562,-1.220797,-0.598123,-3.698346,76.105339,-117.691399
211,994245058,-32.147106,-35.761074,125.571075,1.890811,-2.305393,0.230542,12.774268,75.123909,-118.146576
212,994261725,-30.046915,-35.590008,122.498978,0.552929,-1.955775,0.212276,19.958830,85.143578,-123.042297
213,994278392,-27.921015,-35.169720,119.410057,-0.055331,-1.878093,0.735821,21.682962,94.298462,-120.099030
214,994295059,-25.881580,-34.524284,116.432022,1.779681,-1.775837,1.514477,21.704710,99.897995,-113.388405
215,994311726,-23.936306,-33.833878,113.359032,3.840693,-2.459990,1.964138,14.574010,100.821999,-121.031364
216,994328393,-21.947523,-33.308010,110.227875,3.589517,-2.945029,1.360158,16.875854,89.081039,-131.988129
217,994345060,-19.985170,-33.021648,107.390175,1.914703,-3.013121,1.117385,26.041088,66.053146,-127.077026
218,994361727,-18.267639,-32.929523,105.036316,1.018205,-2.043674,0.921402,27.626955,43.055389,-110.269814
219,994378394,-16.713709,-32.936611,103.110764,1.405707,-0.497651,0.036432,31.873335,27.750805,-92.755699
220,994395061,-15.168476,-32.956291,101.596535,1.917311,-0.299501,-0.479240,44.755165,18.816267,-73.776718
221,994411728,-13.661334,-33.090511,100.448151,1.842235,-1.708312,-0.078410,54.331116,5.594419,-58.103703
222,994428395,-12.567106,-33.310608,99.585884,0.919765,-2.044192,0.413993,38.780704,-4.029505,-45.303310
223,994445062,-12.062634,-33.475063,98.978783,0.110159,-1.775318,0.505374,11.672568,-4.144741,-31.971542
224,994461729,-12.048642,-33.535786,98.621666,-0.202783,-0.659278,0.136253,-9.529271,-0.826305,-18.376974
225,994478396,-12.222606,-33.383385,98.520767,0.061537,0.087263,-0.523732,-12.317604,9.006654,-3.161608
226,994495063,-12.334996,-33.191303,98.593750,0.641691,-1.005169,-0.156150,-2.883069,9.486814,5.880851
227,994511730,-12.662042,-32.942680,98.786491,-0.173229,-1.486195,0.121408,-11.854305,11.469352,12.545152
228,994528397,-13.377557,-32.542633,99.097260,-0.246844,-1.734356,0.322947,-31.387373,18.854261,20.543789
229,994545064,-14.358759,-31.959381,99.518295,0.029930,-0.725288,-0.320334,-43.934418,27.853640,28.982508
230,994561731,-15.413958,-31.203501,99.981552,0.171447,-1.039799,-0.770978,-47.296970,36.746925,34.388741
231,994578398,-16.183464,-30.486691,100.584045,0.224122,-1.448435,-1.102409,-26.176392,31.930984,41.428967
232,994595065,-16.483343,-29.960291,101.371033,-0.373267,-2.009899,-0.350012,7.234496,17.830864,47.892269
233,994611732,-16.523611,-29.579300,102.228226,-0.709801,-1.742961,0.609405,24.576015,8.230313,49.152874
234,994628399,-16.478760,-29.077116,103.033546,-0.506626,-0.880627,0.330348,27.812223,15.917710,48.801342
235,994645066,-16.382711,-28.467838,103.732346,-0.014117,-1.240389,0.112630,27.399906,23.659599,45.447830
236,994661733,-16.071243,-27.929672,104.508575,-0.199949,-1.152550,-0.257768,42.147339,18.524324,48.286671
237,994678400,-15.564903,-27.510788,105.458687,-0.249347,-0.584078,-0.442327,58.351318,9.413735,55.263424
238,994695067,-14.921611,-27.113976,106.556252,0.147800,-0.006924,-0.559143,70.266754,6.574596,62.571281
239,994711734,-14.158201,-26.659855,107.705490,0.101745,-0.158605,-0.533591,78.439735,9.922071,66.229858
240,994728401,-13.575808,-26.082546,108.878967,-0.690926,-0.501768,-0.404951,67.670204,17.496204,69.402946
241,994745068,-13.301918,-25.363188,110.158340,-0.913198,-0.636497,-0.267239,51.201836,24.892401,77.151520
242,994761735,-13.366418,-24.447241,111.543671,-1.060709,0.270955,-0.893245,32.586060,35.070866,85.889122
243,994778402,-13.545905,-23.338179,113.157784,-0.629416,0.598443,-1.358371,29.905605,43.095062,101.453491
244,994795069,-13.695139,-22.071440,114.972641,-0.780480,0.157957,-1.303334,34.533310,49.188850,115.393578
245,994811736,-14.059723,-20.495865,116.868980,-0.297596,-0.400639,-1.168373,20.872978,65.327408,125.439484
246,994828403,-14.566054,-18.649870,118.760643,0.058199,-0.770771,-1.677294,9.108319,79.852203,130.888489
247,994845070,-15.036330,-16.669500,120.683517,-0.289816,-1.709423,-1.839079,8.238026,85.768425,136.497849
248,994861737,-15.518332,-14.623860,122.690895,-0.320469,-2.759038,-1.354660,5.021492,86.809296,144.086716
249,994878404,-16.295124,-12.508772,124.642143,0.061275,-3.117087,-1.612111,-17.687155,89.821541,144.092316
250,994895071,-17.296705,-10.299731,126.314445,0.919876,-2.684206,-1.690781,-38.793308,97.429756,132.339600
251,994911738,-18.258051,-8.149015,127.679993,1.172762,-2.305677,-1.014020,-43.093182,97.159981,116.266518
252,994928405,-19.043215,-6.211883,128.773544,1.384000,-1.669579,-0.413294,-37.458843,88.276863,98.706558
253,994945072,-19.704330,-4.556124,129.599518,0.598277,-1.301078,-0.611773,-33.569702,76.321640,79.364304
254,994961739,-20.371346,-3.165082,130.171982,0.311707,-1.207115,-0.935382,-36.262939,65.636230,60.657715
255,994978406,-21.063829,-2.087576,130.457535,-0.119389,-0.905356,-1.407656,-39.320339,53.385906,38.738071
256,994995073,-21.665947,-1.386833,130.452484,-0.393097,-0.740409,-1.067844,-34.694290,38.233662,14.897273
257,995011740,-22.229414,-1.093804,130.154587,-0.683327,-0.996946,-0.792140,-32.754444,21.957186,-10.144750
258,995028407,-22.858583,-1.188085,129.543442,-0.758238,-0.887035,-0.926366,-37.040569,7.801095,-36.166775
259,995045074,-23.389082,-1.714264,128.638626,-0.484380,-1.013332,-0.781583,-31.765913,-8.750681,-62.448353
260,995061741,-23.655302,-2.640900,127.527161,-0.408176,-1.194517,-0.372094,-17.069546,-25.411707,-83.427399
261,995078408,-23.684349,-3.849628,126.265991,-0.512523,-1.435742,0.140697,-4.589437,-37.122421,-98.441414
262,995095075,-23.656301,-5.181685,124.883125,-0.354536,-1.920420,0.596152,-3.414359,-41.021439,-107.976837
263,995111742,-23.735619,-6.501729,123.472076,-0.705945,-2.068314,1.000959,-11.940522,-39.707417,-109.091591
264,995128409,-24.053900,-7.681778,122.112907,-0.526465,-1.953043,1.948806,-27.728615,-32.990513,-102.801674
265,995145076,-24.425018,-8.820497,120.721275,0.590336,-1.907729,2.481204,-32.814819,-29.411058,-103.532410
266,995161743,-24.523918,-10.101330,119.184372,1.155580,-2.432413,2.424727,-19.657316,-33.300560,-114.755707
267,995178410,-24.165026,-11.631522,117.491714,0.301118,-2.710248,1.769950,3.817944,-43.571144,-128.853302
268,995195077,-23.474018,-13.348478,115.828316,-0.680618,-2.798338,1.123359,21.303055,-55.930157,-130.883942
269,995211744,-22.814468,-15.069151,114.113037,-0.501161,-2.849815,0.311908,15.739613,-56.764545,-132.446228
270,995228411,-22.160969,-16.808308,112.386581,0.121017,-2.781706,-0.065203,12.189011,-59.362999,-132.080627
271,995245078,-21.410286,-18.670467,110.764793,0.672480,-2.748104,-0.519458,16.816120,-70.400871,-127.671478
272,995261745,-20.682199,-20.616722,109.256485,0.651385,-2.780553,-1.101043,14.691208,-79.432167,-121.618279
273,995278412,-20.069855,-22.574348,107.828438,0.207629,-2.788058,-1.090332,6.634300,-83.428162,-115.716858
274,995295079,-19.645679,-24.527615,106.496727,-0.324476,-2.435978,-0.882635,-5.038720,-86.413620,-108.829971
275,995311746,-19.603029,-26.342949,105.282875,-0.849723,-1.841219,-1.004092,-27.284714,-81.572670,-98.671936
276,995328413,-19.899963,-27.970572,104.207489,-0.562785,-1.247194,-1.058220,-45.822456,-73.585526,-87.167824
277,995345080,-20.313204,-29.482130,103.272102,-0.098764,-1.301090,-0.778277,-50.328453,-69.322632,-77.535675
278,995361747,-20.743427,-30.982288,102.433372,-0.421038,-1.153994,-0.340169,-49.703598,-70.128571,-72.412651
279,995378414,-21.308708,-32.419304,101.741844,-0.643360,-0.919943,-0.114667,-54.276093,-68.894173,-64.027054
280,995395081,-22.123362,-33.702503,101.165192,0.215999,-1.064432,-0.196038,-66.307114,-61.882587,-55.565666
281,995411748,-23.006468,-34.899025,100.738281,0.543179,-1.521729,0.142359,-65.977425,-59.258251,-47.233994
282,995428415,-23.750286,-36.143829,100.499306,0.624805,-1.592454,0.376249,-51.511585,-65.012733,-40.490791
283,995445082,-24.307062,-37.451588,100.414734,0.530138,-0.984647,0.342744,-34.997231,-71.098877,-35.806446
284,995461749,-24.704367,-38.770870,100.506096,0.609201,-0.936268,0.198138,-19.006706,-74.903671,-29.052876
285,995478416,-24.913479,-40.113529,100.888222,0.505977,-0.894744,0.092240,3.466117,-81.643684,-17.879028
286,995495083,-25.127832,-41.466999,101.609978,0.380501,-1.256144,0.371881,16.879465,-88.543877,-4.783719
287,995511750,-25.421034,-42.799366,102.604012,0.713130,-0.802899,0.757588,23.868942,-92.264000,5.718174
288,995528417,-25.701025,-44.066349,103.727982,2.114351,-0.241693,0.571974,31.011259,-90.799583,11.228587
289,995545084,-25.699480,-45.220497,104.794106,3.090490,0.046211,0.023849,46.491299,-83.227142,10.831416
290,995561751,-25.327827,-46.339684,105.822372,3.394056,-0.045871,-0.495945,67.963074,-80.228615,9.754435
291,995578418,-24.644213,-47.492805,106.932938,3.348115,0.780796,-1.049092,91.132339,-83.029755,11.876104
292,995595085,-23.700026,-48.506836,108.076309,2.298203,1.475449,-1.572480,109.080780,-75.396942,16.806660
293,995611752,-22.864304,-49.306301,109.459206,1.739813,1.469091,-1.702594,114.123459,-66.708206,30.975710
294,995628419,-22.341938,-49.833683,111.134888,0.580121,1.447062,-1.132504,109.323578,-55.360241,47.873901
295,995645086,-22.440174,-50.094086,113.174782,-0.011887,1.268957,-0.877321,89.265625,-45.523235,66.682755
296,995661753,-23.168941,-50.171963,115.639969,0.092905,0.881951,-0.529779,71.251991,-42.140133,85.428223
297,995678420,-24.416967,-50.123466,118.524956,0.243457,0.855061,-0.370043,59.459789,-43.170841,102.505219
298,995695087,-26.101543,-49.966381,121.752373,0.479241,0.688326,-0.324460,48.814232,-45.622353,116.316185
299,995711754,-28.107313,-49.743160,125.225357,1.047229,0.933509,-0.727795,40.406513,-50.374176,125.530014
300,995728421,-30.314589,-49.425037,128.890976,1.676523,1.258192,-0.667842,36.466568,-54.007481,133.593109
301,995745088,-32.423733,-48.936680,132.665802,2.422729,1.312264,-0.293685,46.308689,-53.131828,141.479919
302,995761755,-34.158695,-48.333218,136.419998,2.418724,1.179891,0.092777,66.413177,-52.527592,144.119858
303,995778422,-35.667664,-47.619854,140.178299,1.716674,1.036935,0.429043,78.426529,-52.384811,148.094696
304,995795089,-37.173862,-46.683849,143.940521,1.148522,1.275233,0.489638,76.575668,-47.040478,156.674713
305,995811756,-38.642586,-45.420197,147.554825,0.873240,1.555376,0.103703,69.455948,-33.739731,165.127686
306,995828423,-40.013508,-43.831364,150.893814,1.292064,1.793012,-0.170945,59.923393,-17.717775,170.510742
307,995845090,-41.134686,-42.087769,154.106796,2.243384,1.789265,0.045546,65.547043,-13.394577,175.006134
308,995861757,-41.874516,-40.451633,157.500137,2.406671,1.851962,0.008390,91.345985,-28.984550,179.458344
309,995878424,-42.529289,-38.983444,161.141006,2.263550,1.465526,0.137080,101.741768,-48.711361,183.446426
310,995895091,-43.241547,-37.616531,164.913910,2.390872,2.135985,0.442262,98.993584,-61.889015,185.764435
311,995911758,-43.988483,-36.300301,168.681763,1.992578,2.551167,0.394512,92.548203,-68.530640,185.059204
312,995928425,-44.745594,-34.938110,172.338196,1.361942,2.651494,0.294928,83.776360,-67.363693,184.427200
313,995945092,-45.539902,-33.461121,175.744095,0.922480,2.345341,0.344871,68.627930,-58.376610,181.807693
314,995961759,-46.341717,-31.935308,178.800201,0.291827,2.198402,0.790457,52.382736,-48.307720,172.883759
315,995978426,-47.136066,-30.429199,-178.495209,0.035744,2.130157,1.163918,37.788364,-40.245735,160.741913
316,995995093,-47.849613,-29.033833,-175.991623,0.183093,2.346907,1.775194,33.110912,-40.656578,149.644501
317,996011760,-48.398846,-27.850449,-173.568283,-0.170572,2.885453,1.965368,37.718281,-48.860897,137.998856
318,996028427,-48.803852,-26.905916,-171.205154,-0.580588,2.721061,1.961349,42.326496,-58.026337,125.563553
319,996045094,-49.076542,-26.211187,-168.915039,-1.275193,2.293176,2.055052,46.499336,-66.348106,111.952415
320,996061761,-49.214291,-25.729954,-166.731033,-2.150272,1.784820,2.115005,50.542210,-71.266319,98.695206
321,996078428,-49.265129,-25.365215,-164.726181,-2.827250,1.351809,2.179132,50.252438,-68.961571,87.232544
322,996095095,-49.220360,-25.071993,-162.937912,-3.111004,0.977327,2.143784,49.828899,-63.082813,76.500549
323,996111762,-49.110630,-24.765703,-161.411652,-3.488878,0.862886,1.915594,46.597313,-51.855690,68.014488
324,996128429,-48.923424,-24.387157,-160.216293,-3.480779,0.953373,1.720461,42.494606,-35.375156,59.733269
325,996145096,-48.583961,-23.995083,-159.370361,-3.546687,0.903627,1.481997,42.601276,-20.328766,48.028236
326,996161763,-48.030643,-23.690811,-158.801941,-3.732173,0.553596,1.076733,48.429043,-12.179968,34.205811
327,996178430,-47.390617,-23.475012,-158.519791,-3.979902,0.199897,0.614619,46.619892,-3.788280,19.846800
328,996195097,-46.743813,-23.357393,-158.528137,-4.043781,0.292410,0.341989,40.061317,4.122791,4.690359
329,996211764,-46.104923,-23.357534,-158.831345,-4.297666,0.563868,0.053387,32.576817,11.078126,-11.676664
330,996228431,-45.501770,-23.439804,-159.493774,-4.260854,0.998783,-0.108300,21.868023,21.698990,-29.117764
331,996245098,-44.920464,-23.600786,-160.487961,-4.058254,1.093291,-0.275758,12.540611,31.006395,-45.530346
332,996261765,-44.372395,-23.813005,-161.758102,-3.961584,0.765983,-0.601684,3.715642,38.978241,-58.733486
333,996278432,-43.952602,-23.980326,-163.311798,-4.058547,0.612735,-0.984135,-11.097182,51.183231,-68.268433
334,996295099,-43.698658,-24.023394,-165.219070,-4.125548,0.975196,-1.253471,-29.829971,69.537880,-77.336388
335,996311766,-43.588726,-23.900698,-167.568283,-4.022730,1.720663,-1.353730,-49.159664,93.238564,-88.246178
336,996328433,-43.551929,-23.613873,-170.353149,-3.663202,2.587939,-1.371531,-63.615009,116.898689,-99.058395
337,996345100,-43.529713,-23.190084,-173.451279,-2.818216,3.365431,-1.194952,-70.999786,134.978699,-106.259125
338,996361767,-43.515110,-22.724405,-176.710968,-1.585769,3.466470,-0.744217,-73.906769,143.310867,-111.453857
339,996378434,-43.460323,-22.348021,-179.976105,-0.759328,3.587704,-0.418675,-70.290314,139.950653,-115.843018
340,996395101,-43.386955,-22.044197,176.764313,-0.285333,3.275423,-0.205173,-67.969940,136.759384,-119.089722
341,996411768,-43.228073,-21.809481,173.440048,0.136245,3.085429,0.022067,-63.436653,136.214447,-125.081505
342,996428435,-42.946510,-21.596180,170.023331,0.510811,2.742645,0.394172,-57.401600,138.514908,-130.457840
343,996445102,-42.460857,-21.410727,166.559280,1.870037,2.373054,0.614786,-45.537453,138.385269,-134.654251
344,996461769,-41.432705,-21.375702,163.224579,1.747239,1.924268,0.916424,-9.793056,125.160049,-137.256607
345,996478436,-40.097618,-21.395271,159.907654,1.589584,0.392776,0.688913,9.034707,119.181198,-141.217850
346,996495103,-38.827507,-21.148039,156.390152,-0.339095,-0.350826,0.529604,1.134022,135.514709,-142.507294
347,996511770,-37.934845,-20.537529,152.777817,0.550127,0.245814,0.457833,-22.064850,153.543228,-136.143112
348,996528437,-37.050308,-19.844093,149.140152,2.559382,0.873523,1.031645,-20.771997,156.759338,-137.313232
349,996545104,-36.063122,-19.268761,145.566650,3.400435,0.729893,1.111002,-11.054281,147.133865,-141.833313
350,996561771,-34.959072,-18.869087,142.210831,2.824059,0.328189,0.833434,1.946861,129.130554,-141.083389
351,996578438,-33.847309,-18.626619,139.075958,1.929412,0.309449,0.526134,7.738521,111.713600,-138.845169
352,996595105,-32.872963,-18.461899,136.093628,1.288106,0.218228,0.209820,3.043103,100.617889,-136.365021
353,996611772,-32.090637,-18.340343,133.256531,1.468327,0.358472,0.128962,-5.307643,91.977921,-132.454300
354,996628439,-31.438126,-18.284533,130.559021,1.971027,0.292323,0.330528,-10.210404,82.815086,-128.987686
355,996645106,-30.856388,-18.335442,128.026840,2.062171,0.129055,0.357947,-11.336103,71.080040,-125.146431
356,996661773,-30.388903,-18.461838,125.648514,1.833011,-0.072530,0.406119,-15.497257,61.530602,-120.499062
357,996678440,-30.048338,-18.657619,123.409004,1.424436,-0.163557,0.444752,-20.840786,53.046600,-116.105118
358,996695107,-29.804630,-18.872766,121.304924,1.214439,0.051945,0.253988,-24.496372,47.534653,-110.159882
359,996711774,-29.665905,-19.034180,119.277962,1.438107,0.343232,0.223010,-29.682384,47.725628,-104.800339
360,996728441,-29.517954,-19.124994,117.357681,2.070088,0.449974,0.254770,-27.291800,48.122272,-97.501320
361,996745108,-29.324581,-19.199371,115.544632,1.961334,-0.087512,0.488374,-22.611258,45.681351,-91.827454
362,996761775,-29.136786,-19.304977,113.811340,1.305856,-0.295946,0.371040,-21.523756,41.501625,-88.895599
363,996778442,-28.957869,-19.475782,112.259750,1.132994,-0.714244,0.483999,-18.675638,32.768490,-81.876213
364,996795109,-28.826406,-19.792276,110.838852,1.444669,-1.304480,0.935074,-19.261671,21.260811,-79.608467
365,996811776,-28.627295,-20.492617,109.569382,2.050521,-2.162023,1.406515,-12.787649,-3.387889,-83.041153
366,996828443,-28.327065,-21.740755,108.442276,2.073572,-2.505193,1.425207,-4.855847,-36.661663,-91.301003
367,996845110,-28.036945,-23.325317,107.476402,1.666541,-1.999039,1.470408,-3.306215,-59.443218,-92.227234
368,996861777,-27.787622,-25.036900,106.564926,1.139286,-1.240438,1.258904,-5.949211,-68.314873,-92.312744
369,996878444,-27.604223,-26.727772,105.681923,0.131332,-0.068119,0.943744,-10.629892,-68.599648,-89.511841
370,996895111,-27.490519,-28.262003,104.895432,-0.098452,0.776284,0.866483,-13.470055,-63.184826,-79.840050
371,996911778,-27.585133,-29.477850,104.123199,0.122600,0.830875,0.972886,-26.555502,-46.850117,-69.859215
372,996928445,-27.832279,-30.428041,103.378677,0.822775,0.160019,0.995159,-35.642128,-33.397335,-60.930187
373,996945112,-28.097254,-31.259209,102.653343,0.561294,-0.249641,0.696290,-36.720852,-27.443581,-56.544003
374,996961779,-28.313459,-32.074928,102.087296,0.439929,0.180679,0.244826,-29.312502,-30.388369,-48.762775
375,996978446,-28.257149,-32.846592,101.700150,1.066346,0.630936,-0.451270,-7.600422,-32.401188,-39.358662
376,996995113,-27.805222,-33.600418,101.580887,1.426249,-0.041710,-0.700112,24.683462,-38.025417,-26.699888
377,997011780,-26.898628,-34.513828,101.822182,1.032628,-1.005508,-0.536049,63.992119,-55.103519,-14.691582
378,997028447,-26.011686,-35.509647,102.323822,0.071171,-0.696484,0.122360,71.974129,-65.392830,-4.719707
379,997045114,-25.502226,-36.292038,102.899925,-0.493550,-0.004916,0.478602,52.324566,-55.366390,4.641071
380,997061781,-25.408339,-36.777302,103.450714,-0.306158,0.008927,0.666989,26.796875,-38.623669,11.288090
381,997078448,-25.630371,-37.028912,103.994164,-0.658614,0.242744,0.842071,7.746838,-25.778902,16.851954
382,997095115,-26.039824,-37.027039,104.574684,-0.396315,0.929450,1.043002,-2.104755,-12.938574,24.902945
383,997111782,-26.461645,-36.773781,105.101295,0.391286,1.410051,1.466424,-4.849677,1.532457,29.208982
384,997128449,-26.692909,-36.287251,105.556534,1.130120,1.077314,1.177176,3.875597,15.370051,32.518040
385,997145116,-26.769463,-35.687069,106.055923,0.703627,-0.146946,0.787872,14.506554,20.343204,37.674431
386,997161783,-26.917501,-34.998390,106.701042,0.086424,-0.602445,0.786413,15.006332,21.695452,46.652786
387,997178450,-27.321857,-34.201111,107.436531,0.106677,-0.865453,0.721441,2.296329,25.100918,53.959679
388,997195117,-27.847031,-33.281536,108.286095,-0.041115,-0.574161,0.208163,-1.699803,28.355202,62.932831
389,997211784,-28.358572,-32.152302,109.160713,-0.013876,-0.113305,-0.314980,-0.821367,38.039246,70.690437
390,997228451,-28.663240,-30.822731,110.121201,0.071456,0.005352,-0.813958,13.321869,45.716633,81.078537
391,997245118,-28.643835,-29.397402,111.278770,-0.245736,-0.349717,-0.769975,37.514118,45.304604,93.553177
392,997261785,-28.558519,-27.826088,112.611542,-1.052438,-0.716692,-0.811810,44.921585,48.232746,106.590523
393,997278452,-28.884016,-25.934240,114.058899,-1.718938,-0.869819,-1.536105,21.249033,61.376640,122.304977
394,997295119,-29.712065,-23.564400,115.637901,-1.790085,-1.175491,-2.327544,-8.498054,80.945671,144.445587
395,997311786,-30.917822,-20.826923,117.386162,-1.340261,-1.633782,-2.770150,-31.194977,91.811630,166.571396
396,997328453,-32.281120,-17.820997,119.103928,-0.104962,-1.991157,-3.231360,-46.155167,101.675087,177.193527
397,997345120,-33.628513,-14.750466,120.609055,0.562590,-3.897384,-1.954006,-53.987823,106.461487,172.794662
398,997361787,-34.893509,-11.930723,121.845139,0.577553,-4.498367,-1.746689,-57.262264,98.214897,154.734680
399,997378454,-36.246964,-9.368035,122.840340,-0.818908,-3.701705,-2.333910,-68.656998,89.937561,137.019043
400,997395121,-37.999706,-6.890936,123.572983,-0.965497,-2.588655,-2.620268,-97.436813,91.239609,124.241074
401,997411788,-39.893490,-4.615165,123.951981,0.465925,-2.287797,-1.636337,-109.845665,90.966843,103.275856
402,997428455,-41.514172,-2.787447,124.117035,0.885661,-1.726515,-0.535523,-95.109077,75.672958,78.853851
403,997445122,-42.905144,-1.440423,124.171913,0.169544,-1.351386,-0.413735,-81.850471,56.633030,56.574192
404,997461789,-44.239689,-0.538503,124.166435,0.002436,-1.104557,-0.291853,-78.595459,38.409264,36.898846
405,997478456,-45.478775,-0.158083,124.044846,0.207783,-0.989400,-0.244822,-72.911217,20.300396,10.761839
406,997495123,-46.499752,-0.274698,123.814545,0.395366,-0.659311,-0.288848,-59.833252,4.047443,-14.798882
407,997511790,-47.145523,-0.695057,123.532631,0.425470,-0.576256,0.190342,-37.413265,-5.952581,-30.135178
408,997528457,-47.537045,-1.291384,123.227463,0.625679,-1.222551,0.725574,-22.330957,-11.811565,-38.888618
409,997545124,-47.895916,-2.002059,122.850296,0.185530,-1.261750,0.679011,-20.706636,-12.987226,-46.938526
410,997561791,-48.213295,-2.811717,122.425148,-0.123159,-1.238180,0.830024,-18.640451,-14.549186,-53.345165
411,997578458,-48.410908,-3.732875,121.996658,-0.094307,-0.996729,0.745419,-11.852784,-18.628754,-58.522053
412,997595125,-48.496944,-4.779804,121.561440,-0.160756,-1.347664,0.503574,-5.631084,-23.210627,-64.462891
413,997611792,-48.537064,-5.985322,121.135513,-0.076321,-1.614762,-0.022942,-3.338481,-29.895899,-71.219109
414,997628459,-48.575329,-7.382126,120.702530,0.019178,-1.923035,-0.404898,-3.854663,-37.174294,-80.087227
415,997645126,-48.582829,-9.005424,120.269211,-0.163510,-2.115715,-0.401398,-2.696359,-46.191776,-90.245293
416,997661793,-48.533669,-10.860382,119.826027,-0.192287,-2.228081,-0.289652,-0.182294,-55.078682,-100.961220
417,997678460,-48.446301,-12.994903,119.318123,0.078892,-2.734343,0.145833,0.397258,-63.622726,-115.849350
418,997695127,-48.295269,-15.423095,118.751228,-0.112215,-2.800536,-0.525593,2.157766,-73.196487,-131.006638
419,997711794,-48.038528,-18.073841,118.064018,-0.651228,-2.648264,-1.910762,4.964248,-77.735947,-145.034027
420,997728461,-47.681969,-20.831816,117.308586,-1.903456,-2.811611,-2.857428,7.732093,-80.413651,-151.583969
421,997745128,-47.485554,-23.631639,116.604256,-2.372730,-3.680927,-2.936258,-2.769218,-85.531021,-150.600327
422,997761795,-47.634987,-26.420452,115.916466,-1.685422,-3.905778,-2.754240,-24.997803,-86.423302,-148.920853
423,997778462,-48.021408,-29.169231,115.253937,-0.605854,-3.728011,-1.972718,-40.295517,-85.786369,-146.038757
424,997795129,-48.474174,-31.849098,114.668304,-0.291765,-3.217393,-1.359944,-43.577999,-85.629578,-140.313705
425,997811796,-48.992596,-34.380783,114.172104,-0.539094,-2.687539,-1.102736,-45.951241,-82.588753,-130.836288
426,997828463,-49.501125,-36.642128,113.734970,-1.421321,-1.695853,-0.767976,-44.325203,-73.557442,-116.930016
427,997845130,-50.047100,-38.675251,113.411835,-1.520676,-1.417340,-0.695945,-43.179619,-68.231056,-103.258324
428,997861797,-50.632393,-40.489254,113.166588,-0.743392,-1.400638,-0.561802,-43.079433,-61.903290,-91.242920
429,997878464,-51.122154,-42.109066,113.041908,0.277023,-1.180744,-0.519459,-32.900856,-58.146755,-79.152802
430,997895131,-51.496994,-43.651859,113.165718,0.963897,-1.144057,-0.559235,-16.015505,-63.294880,-69.065262
431,997911798,-51.888054,-45.192337,113.625000,1.769486,-1.066966,-0.686414,-2.751878,-73.922340,-60.546539
432,997928465,-52.205921,-46.670097,114.410133,2.130672,-0.996538,-0.480803,16.199347,-81.549858,-49.988258
433,997945132,-52.367481,-48.091915,115.515617,2.375901,-0.391018,-0.671624,40.546738,-88.900810,-40.241253
434,997961799,-52.367527,-49.398331,116.738373,2.389600,0.199722,-0.640683,56.578571,-87.356300,-32.774639
435,997978466,-52.236183,-50.534683,117.895103,2.258852,0.032669,-0.546161,62.452969,-78.199043,-26.889793
436,997995133,-52.094402,-51.484730,119.189781,1.851653,-0.490675,-0.162087,70.317696,-74.747604,-15.284278
437,998011800,-52.134659,-52.214794,120.776764,1.510629,-0.185878,-0.321541,73.893219,-74.501129,1.297468
438,998028467,-52.647430,-52.670288,122.876579,0.708229,-0.289918,-0.248023,70.540405,-78.696350,24.966715
439,998045134,-53.764481,-52.850517,125.514793,0.463667,-0.031654,0.109753,60.423725,-84.366096,48.458447
440,998061801,-55.482319,-52.723755,128.666183,0.398050,0.012075,0.406805,48.942459,-90.016800,72.147964
441,998078468,-57.591492,-52.249981,132.235809,0.146939,0.428240,0.594920,44.764683,-94.310333,95.361572
442,998095135,-60.011757,-51.459251,136.408661,-0.731380,0.641758,0.696230,53.117821,-108.884079,120.409706
443,998111802,-62.606022,-50.381046,141.278397,-1.941618,0.915657,1.085967,72.596359,-131.702545,144.881668
444,998128469,-65.352478,-49.081165,146.667770,-2.743211,1.174605,1.528382,83.386284,-154.787720,161.474686
445,998145136,-68.073601,-47.554550,151.963577,-1.860201,1.815222,2.144498,75.479332,-159.054062,167.376526
446,998161803,-70.465485,-45.986938,156.546875,2.466263,1.435180,3.635274,58.270866,-144.032440,154.381073
447,998178470,-72.131042,-44.772026,160.366425,4.985821,1.318534,4.149325,64.567368,-130.256073,120.430786
448,998195137,-72.928612,-43.926281,163.894287,5.211101,1.258370,3.470827,101.480019,-130.302383,93.620850
449,998211804,-73.004784,-43.344627,167.307343,2.969959,1.489190,2.283084,138.094238,-132.631500,76.553535
450,998228471,-72.784477,-42.805225,170.507431,0.782368,1.141932,1.326708,145.691376,-125.669106,71.952347
451,998245138,-72.562874,-42.198200,173.492279,-0.033666,0.218746,0.466539,135.631363,-116.335365,73.863594
452,998261805,-72.522217,-41.510437,176.286774,0.848767,0.026354,0.107908,115.655975,-107.895798,76.613121
453,998278472,-72.639015,-40.770302,178.971313,2.475070,0.355337,0.086147,100.294037,-103.580742,78.469482
454,998295139,-72.721474,-40.089481,-178.320786,4.073181,1.005632,0.164354,101.750336,-107.043602,75.596718
455,998311806,-72.591537,-39.557632,-175.448883,4.502916,1.380225,-0.093850,119.471405,-117.947891,69.684143
456,998328473,-72.319679,-39.145931,-172.329987,3.888973,1.419130,-0.543566,136.282608,-131.663498,66.936958
457,998345140,-72.037064,-38.741920,-169.084625,2.975908,1.251735,-0.899844,140.655197,-137.895554,69.182213
458,998361807,-71.881577,-38.251137,-165.891174,2.608378,1.022689,-1.062251,129.893311,-134.603088,74.191528
459,998378474,-71.874672,-37.634426,-162.794632,2.448286,1.129167,-1.027330,115.942436,-128.876251,80.484879
460,998395141,-71.959541,-36.910324,-159.750854,2.363742,1.337628,-0.786016,106.792969,-125.801895,86.152023
461,998411808,-72.044960,-36.117569,-156.731277,2.305309,1.684607,-0.343856,103.954666,-124.924324,89.967140
462,998428475,-72.040016,-35.299007,-153.725555,2.053113,2.030492,0.002767,106.821037,-125.291145,91.605347
463,998445142,-71.929802,-34.440758,-150.801224,1.686966,2.076103,0.089656,108.185440,-122.103607,93.225708
464,998461809,-71.742210,-33.501919,-147.999680,1.357725,1.987938,0.050272,106.437508,-116.025055,96.714455
465,998478476,-71.480705,-32.443558,-145.377228,0.935643,1.990501,0.004002,102.572258,-106.353928,101.631737
466,998495143,-71.147408,-31.261919,-142.993652,0.795800,2.018623,-0.003290,96.713737,-93.478546,105.812675
467,998511810,-70.744308,-29.959972,-140.801666,0.600834,1.840572,-0.038737,92.398544,-82.606880,110.523392
468,998528477,-70.298248,-28.556496,-138.712830,0.363279,1.545063,0.050790,89.255424,-76.113258,115.580490
469,998545144,-69.805099,-27.074385,-136.689270,0.087294,1.480671,0.373668,87.473785,-71.702187,119.958588
470,998561811,-69.179733,-25.550802,-134.702042,-0.337692,1.423168,0.619506,91.605156,-69.183136,122.800682
471,998578478,-68.349777,-24.069244,-132.669479,-1.067555,1.217699,0.717957,102.196922,-72.077904,122.688446
472,998595145,-67.326050,-22.659382,-130.566055,-1.815865,0.757668,0.845846,112.701836,-76.474190,121.788353
473,998611812,-66.278282,-21.340862,-128.510651,-2.494510,0.595824,1.037382,110.294449,-75.019516,117.508705
474,998628479,-65.310722,-20.135477,-126.576439,-2.634600,0.926310,1.460627,100.386116,-70.409813,110.226540
475,998645146,-64.326477,-19.119799,-124.676170,-2.822900,0.979503,1.552193,98.602623,-72.324875,100.615929
476,998661813,-63.370167,-18.322582,-122.707535,-2.776790,0.600686,1.500292,96.547356,-80.388939,92.019653
477,998678480,-62.602886,-17.710968,-120.728653,-3.104917,0.310044,1.219522,84.030121,-84.977699,83.766090
478,998695147,-62.088367,-17.224077,-118.842659,-3.185658,0.342040,1.075708,66.121231,-83.098671,75.775352
479,998711814,-61.791897,-16.860312,-117.120972,-2.957864,0.597203,1.171718,49.360504,-77.930862,65.525948
480,998728481,-61.527668,-16.692890,-115.448814,-2.953645,1.181290,1.388131,46.122494,-80.813057,54.256264
481,998745148,-61.283875,-16.678614,-114.066696,-3.134043,-0.456493,1.061526,39.761478,-70.371727,38.588818
482,998761815,-61.350693,-16.684221,-113.100746,-2.719735,-0.343794,0.623673,13.964743,-49.894955,26.177101
483,998778482,-61.615425,-16.718721,-112.557938,-2.918107,-0.502690,0.734687,-5.177536,-29.422132,12.906550
484,998795149,-62.076607,-16.769257,-112.483398,-2.835079,-0.220038,0.849608,-25.022436,-6.227499,-0.812193
485,998811816,-62.657970,-16.860168,-112.844292,-2.868122,0.235021,1.117696,-39.771759,14.812422,-14.599803
486,998828483,-63.244144,-17.027702,-113.578278,-3.012258,0.587035,1.251480,-46.617458,31.929667,-28.260923
487,998845150,-63.765171,-17.271721,-114.610619,-2.989584,0.585675,1.197425,-48.122608,45.418736,-39.657818
488,998861817,-64.154793,-17.590937,-115.810066,-2.729390,0.377019,1.148985,-43.517887,52.264858,-47.497070
489,998878484,-64.473167,-17.986156,-117.134125,-2.572180,0.364865,0.961814,-41.942863,56.877865,-54.301228
490,998895151,-64.749016,-18.463280,-118.593750,-2.564750,0.770773,1.015303,-42.497837,61.864407,-61.669621
491,998911818,-64.913925,-19.061121,-120.147552,-2.357577,1.091888,1.082462,-38.425022,63.628006,-70.144325
492,998928485,-64.957741,-19.775181,-121.729492,-2.159554,1.233047,1.042898,-32.718441,61.931210,-76.869438
493,998945152,-64.864044,-20.591743,-123.270912,-1.985335,1.319758,0.960216,-24.808952,56.834034,-81.316139
494,998961819,-64.682701,-21.471609,-124.726372,-2.003171,1.131404,0.656549,-18.971607,50.234360,-82.635620
495,998978486,-64.530739,-22.356043,-126.129990,-2.080768,0.868831,0.208015,-20.815363,46.829700,-81.583099
496,998995153,-64.522675,-23.209034,-127.577461,-2.118099,0.968423,0.086941,-31.637686,49.286343,-80.781715
497,999011820,-64.701027,-24.001665,-129.127045,-2.033081,1.573378,0.308705,-46.411755,55.586998,-79.625931
498,999028487,-64.915260,-24.735044,-130.759048,-2.029432,2.065164,0.584851,-51.723053,60.999561,-77.918976
499,999045154,-65.032829,-25.428658,-132.411682,-1.095793,2.227230,1.017506,-47.546242,62.794575,-75.837593
500,999061821,-65.082970,-26.162991,-134.126114,-0.020262,2.380924,1.154669,-46.218472,64.424896,-79.147820
501,999078488,-65.056046,-27.028502,-135.756363,1.174539,2.776259,0.977257,-40.619774,56.458790,-84.108734
502,999095155,-64.814812,-28.054384,-137.323502,0.957907,1.507623,0.950917,-27.448299,48.482964,-91.238083
503,999111822,-64.713142,-29.047852,-139.299805,0.648348,0.764415,0.428515,-49.016426,67.843582,-98.492424
504,999128489,-64.614731,-30.043934,-141.571762,1.334768,1.458155,0.522688,-59.760201,80.652405,-104.929810
505,999145156,-64.397354,-31.120850,-144.008942,1.581662,1.467260,0.289330,-59.799885,84.865059,-112.676819
506,999161823,-64.097839,-32.242687,-146.518829,1.535714,1.744069,0.132962,-59.573654,85.234138,-116.482498
507,999178490,-63.717209,-33.346779,-149.230637,1.304721,1.717783,-0.135755,-63.741192,92.754585,-119.833549
508,999195157,-63.356895,-34.376534,-152.111969,1.184877,1.891874,-0.556980,-73.158974,100.043312,-119.471222
509,999211824,-62.958233,-35.307644,-155.089554,1.000806,1.906612,-0.806621,-76.596222,104.667725,-116.250412
510,999228491,-62.485500,-36.101860,-158.167892,0.910748,1.716440,-0.783860,-77.875938,110.535950,-111.294052
511,999245158,-61.879200,-36.825798,-161.276962,1.180367,1.957865,-0.623828,-72.930977,111.491943,-108.632111
512,999261825,-61.013309,-37.522266,-164.228806,1.828169,2.214111,-0.423838,-53.507187,103.065094,-104.370644
513,999278492,-59.850189,-38.232082,-167.338211,1.680547,1.054763,-0.411425,-43.202473,106.155251,-109.929413
514,999295159,-58.632053,-38.898327,-170.627228,1.494783,0.482208,-0.126039,-48.376469,111.241890,-113.489059
515,999311826,-57.314442,-39.573399,-174.007263,1.897168,0.115442,0.342469,-47.667133,110.788574,-117.865395
516,999328493,-55.830147,-40.258373,-177.691025,1.413881,-0.185574,0.444942,-51.221169,117.938110,-127.911766
517,999345160,-54.217430,-40.941715,178.413452,1.576673,0.022407,0.294497,-53.804066,121.010712,-135.546249
518,999361827,-52.406258,-41.581165,174.376831,1.404025,0.053307,0.021850,-49.523411,122.172836,-139.759918
519,999378494,-50.504448,-42.191238,170.419800,1.352027,-0.108355,0.096745,-42.877892,114.539833,-138.992599
520,999395161,-48.532928,-42.806114,166.669693,1.285851,-0.153898,0.250755,-32.181984,101.338142,-135.985718
521,999411828,-46.573765,-43.418407,163.103546,1.297238,-0.207465,0.490921,-27.155087,89.579491,-132.760727
522,999428495,-44.770977,-43.905544,159.533157,0.865084,-0.097388,0.690379,-38.195297,89.545609,-129.430054
523,999445162,-43.098190,-44.266392,155.918747,1.208089,0.800582,0.764669,-48.983242,91.603378,-127.436951
524,999461829,-41.416317,-44.598755,152.283051,1.871694,0.673425,0.675438,-50.271496,89.108505,-128.939758
525,999478496,-39.680359,-44.887314,148.735275,1.669872,0.330067,0.694350,-44.151089,84.254272,-126.386177
526,999495163,-38.005608,-45.090462,145.354340,0.948794,-0.176699,0.859480,-41.388630,79.613007,-119.639328
527,999511830,-36.562553,-45.239910,142.270920,0.854079,-0.363427,1.081127,-43.073784,71.011719,-109.473076
528,999528497,-35.178463,-45.323235,139.342636,0.896361,0.001243,1.170616,-40.262897,67.517677,-103.366089
529,999545164,-33.792999,-45.388577,136.613068,1.467252,-0.091298,1.199186,-31.854586,61.061504,-97.338440
530,999561831,-32.377354,-45.454876,134.039307,1.561712,-0.405594,1.157993,-23.516151,54.968021,-93.247711
531,999578498,-31.031914,-45.512714,131.793182,1.760638,-0.500300,1.082749,-13.826538,45.836529,-82.480408
532,999595165,-29.764345,-45.587624,129.618912,1.264209,-0.943755,0.826941,-15.529448,41.481163,-81.346504
533,999611832,-28.689096,-45.599667,127.707954,1.039427,-0.587721,0.419846,-15.852419,37.671326,-70.648331
534,999628499,-27.655876,-45.553757,125.966721,1.005349,-0.383545,-0.083568,-11.076157,36.078957,-63.446598
535,999645166,-26.614759,-45.434391,124.398384,0.996960,0.170932,-0.588873,-3.094190,35.580551,-55.719845
536,999661833,-25.527220,-45.279491,122.874176,1.170517,-0.610766,-0.738728,1.730195,35.717125,-53.929390
537,999678500,-24.516998,-45.121765,121.598457,0.990948,-1.099411,-0.879697,7.844606,30.511572,-45.167511
538,999695167,-23.679514,-44.920578,120.492546,0.650785,-0.968126,-0.948657,4.860312,29.285116,-38.185043
539,999711834,-23.076433,-44.546967,119.464828,0.482634,0.028735,-1.185532,-5.665705,37.068325,-31.612513
540,999728501,-22.517132,-44.022045,118.553642,0.722555,-0.231762,-1.466375,-3.065252,43.311291,-24.179087
541,999745168,-21.981506,-43.482224,117.827934,0.672566,-1.391791,-0.764180,3.578010,40.997112,-17.150858
542,999761835,-21.764198,-42.869770,117.134949,0.127651,-1.830089,-0.194209,-13.856855,44.500080,-14.750414
543,999778502,-21.898947,-42.116131,116.459587,0.240413,-2.089719,-0.240032,-33.901257,52.179764,-11.219020
544,999795169,-22.200312,-41.336067,115.730293,0.240785,-2.173238,-0.416044,-45.651512,54.724861,-12.996304
545,999811836,-22.375675,-40.688400,115.101555,0.485378,-1.806925,-0.173385,-33.723370,45.826782,-11.893781
546,999828503,-22.310574,-40.197269,114.514816,0.141086,-1.212603,0.574207,-17.375881,36.505943,-13.869891
547,999845170,-22.035406,-39.758278,113.944122,0.153299,-0.573068,1.106646,-3.934654,33.353500,-14.646663
548,999861837,-21.585421,-39.230145,113.307846,0.065702,-0.121043,1.142300,4.273602,39.420555,-15.868217
549,999878504,-20.999811,-38.581657,112.735733,-0.378567,0.622536,1.465501,15.134637,45.008476,-11.045403
550,999895171,-20.349360,-37.785946,112.226913,-0.847370,1.029295,2.292040,21.712036,52.198288,-5.878604
551,999911838,-19.938982,-36.730335,111.727768,-0.657189,1.043666,2.850731,8.049642,66.734100,-0.844682
552,999928505,-19.828718,-35.267929,111.370262,0.350900,0.885321,1.527780,-4.431132,87.484093,13.252037
553,999945172,-19.666309,-33.638611,111.318222,1.308440,-0.350560,0.292990,9.543219,91.952538,30.333872
554,999961839,-19.380531,-31.991356,111.705727,1.248033,-1.118720,-0.377707,31.321342,85.688042,51.176113
555,999978506,-19.186993,-30.331297,112.437584,0.755773,-2.736156,-0.983088,35.916588,80.659645,68.087044
556,999995173,-19.287661,-28.611366,113.290054,0.629564,-3.897935,-1.359469,20.710861,81.795128,75.770157
557,1000011840,-19.598186,-26.942238,114.076431,0.329342,-3.870149,-2.267122,4.945304,79.548149,72.429466
558,1000028507,-20.063356,-25.367235,114.755386,-0.021834,-3.757913,-2.788770,-8.368519,75.475815,66.187035
559,1000045174,-20.769997,-23.943853,115.271370,-0.410220,-3.835910,-2.611402,-27.901011,69.184677,55.899582
560,1000061841,-21.725098,-22.743254,115.520630,-0.113538,-3.508634,-2.587906,-49.806164,61.105495,38.645023
561,1000078508,-22.896122,-21.820095,115.442970,-0.318095,-2.881953,-2.605279,-70.461479,51.806225,16.781710
562,1000095175,-24.196297,-21.235601,115.045853,-0.355760,-2.906324,-2.500278,-85.193336,39.918972,-6.565343
563,1000111842,-25.463415,-21.059891,114.401855,-0.506207,-2.788772,-1.865839,-88.414642,23.604385,-28.536545
564,1000128509,-26.539515,-21.321877,113.605247,-1.027505,-2.579587,-1.157807,-80.295197,4.301112,-47.201206
565,1000145176,-27.443670,-21.899292,112.757332,-1.679336,-2.376675,-0.516242,-71.448112,-10.519890,-58.126823
566,1000161843,-28.231890,-22.729872,111.897583,-1.367155,-2.109151,-0.188197,-65.350342,-22.905609,-65.723892
567,1000178510,-28.738567,-23.785843,111.028069,-0.835988,-1.842414,0.335649,-49.478722,-33.960461,-72.590942
568,1000195177,-28.942480,-25.043940,110.178146,-1.037660,-1.959809,0.161985,-31.804056,-44.855919,-77.345375
569,1000211844,-29.027117,-26.429495,109.387894,-1.038452,-2.117848,-0.141148,-24.161997,-53.166553,-77.895569
570,1000228511,-29.133820,-27.934469,108.527138,-0.438606,-2.658556,-0.537650,-28.492146,-57.739502,-84.282715
571,1000245178,-29.100130,-29.660360,107.492081,-0.126726,-3.272517,-1.160241,-26.396332,-65.150795,-98.178757
572,1000261845,-28.918081,-31.618677,106.378021,-0.613552,-3.434270,-1.981768,-21.652143,-76.044647,-107.531685
573,1000278512,-28.703461,-33.708046,105.250023,-1.018837,-3.081347,-2.780559,-22.161469,-83.579536,-110.595055
574,1000295179,-28.533062,-35.813160,104.135773,-0.791750,-2.701466,-3.430505,-26.405205,-85.781059,-108.962730
575,1000311846,-28.387743,-37.807453,103.041107,-0.453738,-2.197592,-3.682834,-29.151310,-81.358841,-103.513161
576,1000328513,-28.083450,-39.684788,102.134018,-0.400390,-1.362816,-3.129869,-14.324169,-80.388290,-90.950005
577,1000345180,-27.628532,-41.461739,101.466499,-0.385083,-0.902848,-2.324651,2.732554,-81.293297,-76.970055
578,1000361847,-27.223663,-43.038025,100.983803,0.035774,-0.754897,-2.132256,6.302277,-75.319458,-62.853374
579,1000378514,-26.867983,-44.385616,100.569725,0.545621,-0.770600,-2.009764,5.663602,-65.100693,-53.017422
580,1000395181,-26.408190,-45.566296,100.211555,1.363455,-0.412385,-1.972951,13.885835,-57.758034,-45.615616
581,1000411848,-25.653084,-46.696831,99.844345,1.496962,-1.016954,-1.149428,30.917334,-55.506092,-43.758617
582,1000428515,-24.600111,-47.896736,99.714523,0.612836,-1.180383,-0.308590,58.955189,-64.199432,-35.626907
583,1000445182,-23.467943,-49.101437,99.953621,-0.354660,-0.790617,0.205714,80.173248,-71.156319,-21.033752
584,1000461849,-22.585369,-50.139481,100.537270,-0.497743,-0.783632,0.236848,81.128120,-67.469917,-3.751588
585,1000478516,-22.032183,-51.044918,101.420868,-0.045853,-0.516556,-0.137627,75.647240,-64.316528,10.254681
586,1000495183,-21.698002,-51.836349,102.586830,0.264470,-0.708870,-0.284969,76.245071,-61.595741,22.530252
587,1000511850,-21.549650,-52.526688,103.939781,0.461061,-0.638173,0.133205,74.513329,-58.137886,30.755554
588,1000528517,-21.567022,-53.070076,105.532013,0.229521,-0.137608,0.571743,76.534576,-52.843311,41.492844
589,1000545184,-21.593729,-53.395779,107.061798,0.058533,0.396995,1.099875,73.403191,-39.678562,43.656643
590,1000561851,-21.664532,-53.434143,108.507919,-0.269979,0.264816,1.235661,66.895157,-22.500456,46.985989
591,1000578518,-21.887344,-53.253666,110.137688,-0.921352,0.193787,1.650273,66.547974,-12.903040,57.998093
592,1000595185,-22.643850,-52.733028,112.117744,-1.063027,-0.103414,1.706754,50.940701,0.514210,77.787292
593,1000611852,-23.798094,-52.038841,114.521820,-0.366622,-0.266740,1.590747,46.458805,2.260573,97.107666
594,1000628519,-25.055487,-51.239601,117.092491,1.594503,-0.528330,1.125789,46.951984,2.767104,106.776993
595,1000645186,-25.951235,-50.430840,119.332733,2.854992,-0.295229,0.666328,51.906208,5.938873,97.293182
596,1000661853,-26.383190,-49.543255,121.285461,2.453595,-0.518090,0.142225,65.256683,13.262497,90.873589
597,1000678520,-26.534716,-48.681938,123.246384,0.797556,-1.330238,0.071626,81.282768,10.635506,91.740547
598,1000695187,-26.707180,-47.839787,125.526581,0.056387,-1.296387,0.200538,93.163338,3.030735,103.842445
599,1000711854,-26.848724,-46.970249,127.966232,0.778354,-0.487069,0.310268,100.673744,0.606013,111.734367
600,1000728521,-26.820869,-45.881397,130.288422,1.575493,0.261594,0.333124,104.011551,13.601909,114.975540
601,1000745188,-26.563948,-44.645878,132.517303,1.953011,-0.219230,0.399548,111.804741,22.607136,117.185104
602,1000761855,-26.265234,-43.347061,134.836075,1.600325,-0.249693,0.517688,115.947342,23.921469,124.095383
603,1000778522,-26.004030,-42.041077,137.298233,1.195078,-0.250584,1.102873,117.224365,21.166977,131.789139
604,1000795189,-25.843216,-40.556927,139.850952,0.793433,0.351834,1.174012,112.105019,28.425699,142.220474
605,1000811856,-25.684916,-39.019413,142.460297,2.043608,0.397069,1.050759,111.048866,29.430456,148.248672
606,1000828523,-25.416080,-37.515614,145.089386,2.780711,0.521068,1.050530,115.172783,26.632542,150.453323
607,1000845190,-25.069780,-36.181881,147.858780,3.305336,0.577864,1.149336,121.763412,14.321012,154.192032
608,1000861857,-24.832848,-34.793209,150.574707,1.740683,0.708455,1.627055,110.153969,18.204172,155.245483
609,1000878524,-24.756643,-33.448135,153.278809,2.257075,0.598718,1.426116,96.903091,15.578535,155.562439
610,1000895191,-24.552788,-32.328423,156.027039,2.862767,0.669572,1.605456,103.080238,1.939263,153.651108
611,1000911858,-24.432922,-31.176628,158.611282,2.691970,0.774211,1.868204,90.096390,6.865920,148.412567
612,1000928525,-24.569075,-29.994707,161.052856,3.245528,1.081578,1.419140,67.670944,10.866720,143.933762
613,1000945192,-24.948967,-28.753557,163.369034,2.428478,0.940050,0.798438,46.674492,15.535085,140.923325
614,1000961859,-25.645185,-27.414513,165.737000,1.752093,1.028859,0.489492,26.409931,17.702259,147.412552
615,1000978526,-26.640051,-25.929783,168.231766,1.675894,1.300074,0.419937,8.790060,19.666878,159.062241
616,1000995193,-27.854774,-24.303871,170.881699,1.532206,1.602336,0.214919,-4.103270,19.448374,172.382248
617,1001011860,-29.227463,-22.540714,173.664856,1.316830,1.986403,0.174627,-14.693705,18.357046,184.866974
618,1001028527,-30.609575,-20.665983,176.570786,1.092985,2.520100,0.241842,-17.450426,15.285670,196.301102
619,1001045194,-31.883802,-18.744286,179.598663,0.680565,2.569952,0.326896,-13.915803,8.511372,205.715591
620,1001061861,-33.000267,-16.839117,-177.269836,0.151015,2.336391,0.306602,-8.302943,-0.832775,211.973602
621,1001078528,-33.934196,-15.020434,-174.024857,-0.493038,1.532980,0.441993,-1.330787,-13.532016,216.019547
622,1001095195,-34.633354,-13.367899,-170.691147,-1.144181,1.002961,0.274672,8.353383,-28.602266,215.742035
623,1001111862,-35.068497,-11.946243,-167.401260,-1.606890,1.525356,0.346781,18.382832,-41.331013,206.468552
624,1001128529,-35.234104,-10.769160,-164.372375,-2.087406,2.124037,0.441932,27.082735,-46.079029,186.020905
625,1001145196,-35.121540,-9.889833,-161.630814,-2.475333,1.767918,0.737763,37.481663,-51.335094,162.372391
626,1001161863,-34.796307,-9.292291,-159.110657,-2.765727,1.158336,0.931485,45.941223,-57.245396,142.442215
627,1001178530,-34.409618,-8.955775,-156.824905,-2.537518,0.908008,1.478354,46.189598,-61.460392,122.651459
628,1001195197,-34.024826,-8.837626,-154.765518,-2.402430,0.874897,1.347512,43.441582,-63.943092,104.665939
629,1001211864,-33.671467,-8.902794,-152.897552,-2.408498,0.718334,0.886268,39.736885,-66.076157,89.544510
630,1001228531,-33.375629,-9.100162,-151.224060,-2.368105,0.760927,0.857462,34.721695,-65.781395,75.904892
631,1001245198,-33.184124,-9.381761,-149.759445,-2.371841,0.863747,0.536619,26.871927,-62.841545,63.014648
632,1001261865,-33.124596,-9.721151,-148.529587,-2.398510,0.772601,0.314148,17.097260,-57.957592,49.572144
633,1001278532,-33.189930,-10.075817,-147.499435,-2.385860,0.570374,0.354172,7.997494,-52.221333,39.131279
634,1001295199,-33.353901,-10.439813,-146.647354,-2.247054,0.577548,0.344359,0.570804,-46.955631,29.887241
635,1001311866,-33.588970,-10.794715,-145.993225,-2.212594,0.681313,0.051055,-5.558559,-40.123829,20.249502
636,1001328533,-33.898323,-11.132242,-145.553787,-1.904668,0.725055,0.062014,-12.219616,-32.296299,10.096257
637,1001345200,-34.202545,-11.449568,-145.331909,-1.963867,1.034497,-0.012184,-14.310917,-24.153175,-0.023653
638,1001361867,-34.437862,-11.755912,-145.306610,-1.809619,1.066821,0.096189,-12.463994,-17.083292,-9.307210
639,1001378534,-34.616383,-12.075414,-145.480133,-1.617977,1.171374,0.240010,-11.497387,-11.081717,-19.426109
640,1001395201,-34.771206,-12.383092,-145.856216,-1.807206,0.989118,-0.040922,-12.693969,-3.683952,-28.808489
641,1001411868,-34.936653,-12.662470,-146.463867,-1.979060,1.044580,0.012843,-16.444534,5.532193,-38.952858
642,1001428535,-35.124996,-12.921171,-147.348160,-2.141725,1.328699,0.004338,-21.646677,15.941949,-51.440414
643,1001445202,-35.322647,-13.176107,-148.519928,-2.305583,1.477626,0.077645,-26.314566,25.964609,-64.931580
644,1001461869,-35.554096,-13.451774,-149.972488,-2.424051,1.712686,0.428217,-32.522251,34.663666,-78.845917
645,1001478536,-35.828823,-13.758412,-151.690750,-2.444108,2.006125,0.603238,-39.282707,42.491505,-92.272568
646,1001495203,-36.166279,-14.102116,-153.690002,-2.359710,2.399290,0.574831,-47.652733,50.730198,-106.471397
647,1001511870,-36.561195,-14.517171,-155.989792,-2.002644,2.593451,0.779691,-56.306057,58.213425,-122.587708
648,1001528537,-36.964848,-15.057914,-158.562592,-1.782817,2.753664,0.818403,-62.104473,62.339767,-139.139771
649,1001545204,-37.398899,-15.723946,-161.396896,-1.820870,2.555036,0.835251,-69.641991,66.262886,-154.930099
650,1001561871,-37.877136,-16.478251,-164.454849,-1.902133,2.186587,0.766733,-78.025146,70.838936,-167.380844
651,1001578538,-38.409222,-17.336018,-167.704071,-1.627214,1.931771,0.742940,-87.050552,73.771080,-178.627625
652,1001595205,-38.931995,-18.320787,-171.130234,-1.093763,2.164451,0.974149,-92.726112,75.214188,-189.851196
653,1001611872,-39.355003,-19.459845,-174.733414,-0.280398,2.555751,1.286227,-93.785400,75.198708,-201.911407
654,1001628539,-39.573559,-20.771412,-178.471954,0.374092,2.439951,1.515905,-88.666962,72.225723,-212.763245
655,1001645206,-39.551174,-22.232286,177.747894,0.602364,2.027267,1.490286,-80.192909,65.942123,-218.637039
656,1001661873,-39.302891,-23.798111,173.976868,0.718042,1.908567,1.290096,-71.966835,58.805607,-220.641235
657,1001678540,-38.861866,-25.386494,170.158081,0.877289,1.866077,1.103601,-67.307693,56.518681,-221.949493
658,1001695207,-38.239426,-26.991840,166.260132,1.327813,1.700766,1.201023,-64.288864,54.618523,-224.292587
659,1001711874,-37.395161,-28.651827,162.364670,1.402619,1.394385,1.163407,-56.842564,47.220570,-224.488159
660,1001728541,-36.378284,-30.407484,158.474045,1.446435,1.367660,1.314033,-52.473202,36.845737,-225.830826
661,1001745208,-35.134674,-32.206276,154.469070,1.233486,1.475407,1.301123,-48.681885,31.577984,-229.820602
662,1001761875,-33.600506,-34.035152,150.407196,1.284484,1.236037,1.543326,-39.565147,23.855040,-230.575714
663,1001778542,-31.780115,-35.882786,146.381668,1.483481,1.367698,1.526736,-27.627953,12.832298,-226.623947
664,1001795209,-29.729420,-37.688873,142.439346,1.887349,1.067782,1.541995,-17.068398,2.975245,-218.374252
665,1001811876,-27.529230,-39.366066,138.632980,1.633004,1.015598,1.317114,-8.712496,-3.491313,-205.215271
666,1001828543,-25.349899,-40.792637,135.029816,1.693829,1.146617,0.979162,-6.906018,-3.754860,-186.432419
667,1001845210,-23.356556,-41.933418,131.543243,1.967386,0.866346,0.724277,-17.097012,1.616235,-171.464935
668,1001861877,-21.543352,-42.793434,128.155670,2.139646,0.712396,0.194751,-26.625395,8.890002,-158.726715
669,1001878544,-19.899979,-43.370247,124.988258,1.409630,0.983575,-0.357602,-29.658245,15.968348,-142.303528
670,1001895211,-18.423828,-43.499691,122.082054,0.693272,1.936784,-1.274042,-29.774099,33.452206,-122.406334
671,1001911878,-17.148226,-43.150478,119.460587,1.156805,1.196765,-1.590328,-29.837593,54.136753,-102.806732
672,1001928545,-16.248016,-42.448845,117.023285,2.005295,0.314835,-1.624959,-43.797012,70.391922,-90.938484
673,1001945212,-15.770565,-41.444897,114.818237,2.229193,-0.022097,-1.318597,-58.235237,84.280472,-78.237663
674,1001961879,-15.618568,-40.199230,112.851746,2.194192,-0.045485,-0.942352,-66.451569,95.347099,-66.011597
675,1001978546,-15.590867,-38.887779,111.196495,2.311465,-0.528008,-0.781228,-59.997818,95.631226,-52.866096
676,1001995213,-15.582725,-37.694805,109.845177,1.891363,-1.358041,-0.198960,-48.179398,85.286621,-42.341858
677,1002011880,-15.653845,-36.607582,108.732887,1.513519,-1.085284,0.297690,-42.990719,76.380882,-33.943134
678,1002028547,-15.773643,-35.548820,107.763672,1.577623,-1.251054,1.452772,-39.846626,73.108856,-28.313763
679,1002045214,-15.869918,-34.494785,106.762756,0.717346,-0.838452,2.678841,-38.651875,73.476082,-30.355356
680,1002061881,-15.770262,-33.500217,105.838997,0.745258,-0.607888,3.070667,-23.420897,69.157303,-28.219961
681,1002078548,-15.482484,-32.723610,105.110970,0.588574,-1.150703,3.364560,-4.998379,53.941765,-22.952909
682,1002095215,-15.272059,-32.183205,104.703941,0.245567,-1.262477,3.195688,1.117443,35.933842,-11.545392
683,1002111882,-15.353885,-31.681723,104.527695,1.293880,-0.939815,2.263466,-8.906565,30.588207,-0.981226
684,1002128549,-15.509176,-31.148773,104.454491,2.086545,-0.966164,0.589932,-10.005369,31.010944,4.618736
685,1002145216,-15.334125,-30.771397,104.603111,1.752451,-1.433164,-0.103894,16.702122,18.974447,13.112005
686,1002161883,-14.961731,-30.484852,105.141037,0.333890,-0.618526,-0.612145,40.403542,8.504413,31.010326
687,1002178550,-14.509381,-30.076189,105.957535,0.169118,0.429562,-1.369255,53.463650,12.109759,46.861668
688,1002195217,-14.082574,-29.465935,106.933136,0.418683,-0.759606,-1.630711,56.295410,22.088163,57.981407
689,1002211884,-13.782585,-28.631922,108.123810,-0.009320,-0.801410,-2.476169,54.314667,32.671635,72.368454
690,1002228551,-13.489470,-27.578169,109.567871,0.032016,-0.594795,-2.811791,60.036079,42.549404,88.888268
691,1002245218,-13.394967,-26.230537,111.151619,-0.476064,-1.475305,-2.417620,50.308018,58.052803,100.927956
692,1002261885,-13.864788,-24.442331,112.704872,-0.855919,-1.914226,-3.030579,13.331188,83.515244,106.851204
693,1002278552,-14.820735,-22.244133,114.144585,-0.848601,-3.106903,-3.378870,-21.479425,107.205971,109.244896
694,1002295219,-16.170958,-19.783602,115.531273,-1.259474,-3.819237,-3.264128,-49.522594,120.562332,114.043266
695,1002311886,-18.078318,-17.167795,116.770531,-0.949803,-4.607328,-3.128198,-89.232193,128.257614,113.363007
696,1002328553,-20.813797,-14.603867,117.538216,-0.380949,-5.165306,-2.898859,-149.879807,129.325256,92.766380
697,1002345220,-24.503212,-12.545615,117.513245,-0.798742,-4.995009,-3.502619,-220.095856,113.526962,46.005161
698,1002361887,-28.474838,-11.420904,116.852615,-0.067582,-3.727592,-4.214533,-244.934158,76.663437,-4.822545
699,1002378554,-31.764519,-11.495718,115.839218,0.589887,-3.094929,-3.493139,-207.884476,24.971270,-54.033764
700,1002395221,-33.897255,-12.655091,114.869179,0.717261,-2.975578,-1.839557,-138.566269,-28.663036,-85.770638
701,1002411888,-34.982861,-14.697224,114.163445,0.946764,-3.682514,0.410948,-73.582375,-78.855194,-103.474495
702,1002428555,-35.337494,-17.357628,113.651039,0.485381,-4.566814,0.913000,-28.208881,-114.577469,-116.331985
703,1002445222,-35.309406,-20.289738,113.246040,-0.568786,-4.537039,0.494201,-4.619589,-131.342117,-120.768562
704,1002461889,-35.192814,-23.238077,112.858055,-1.665839,-4.171851,-0.066401,-0.110480,-133.120163,-120.032433
705,1002478556,-35.093834,-26.168552,112.417686,-1.553728,-3.687255,-0.439958,-3.588575,-131.124634,-121.107330
706,1002495223,-34.850376,-29.112938,111.908600,-1.303759,-3.364798,-0.986371,1.925507,-130.426056,-123.713623
707,1002511890,-34.548916,-32.105373,111.335182,-1.321712,-4.325716,-1.487525,2.043988,-131.945572,-126.839088
708,1002528557,-34.347881,-35.216557,110.643700,-1.149151,-5.298558,-2.521364,-9.461935,-135.620483,-134.343643
709,1002545224,-34.189915,-38.347954,109.946602,-1.216760,-4.024055,-4.549558,-14.110046,-137.648544,-133.761978
710,1002561891,-34.037731,-41.195576,109.282722,-1.264946,-2.023676,-5.637010,-14.897552,-125.556938,-121.450912
711,1002578558,-34.028519,-43.777721,108.552292,-0.939772,-2.538558,-4.907210,-27.593994,-111.584663,-113.770622
712,1002595225,-34.028671,-46.181526,107.752548,-0.096762,-2.383515,-4.330322,-32.472736,-101.831619,-109.119354
713,1002611892,-33.784870,-48.417503,107.072906,0.089773,-1.217358,-3.740626,-13.879144,-97.229355,-98.069160
714,1002628559,-33.496941,-50.444256,106.649170,-1.357133,-0.807010,-2.503746,-0.572206,-93.397484,-81.412979
715,1002645226,-33.632011,-51.968014,106.706848,-1.602783,0.126425,-1.552768,-3.950059,-78.699959,-49.020283
716,1002661893,-33.876881,-52.906593,106.582367,-1.027257,-0.005313,-1.157368,-19.151337,-45.615139,-35.342854
717,1002678560,-33.984535,-53.412449,106.305283,-0.651089,-0.188445,-1.211864,-18.305437,-20.940371,-25.477236
718,1002695227,-34.069221,-53.492207,106.214020,-1.022700,-0.048158,-1.530884,-8.025767,-3.461685,-5.641097
719,1002711894,-34.374767,-53.048557,106.649025,-2.080057,-0.144556,-1.635341,4.038733,11.910487,27.621111
720,1002728561,-35.105145,-52.019512,107.800674,-2.739290,-0.406511,-1.764834,12.467259,25.458738,69.478172
721,1002745228,-36.168968,-50.295082,109.475227,-2.556696,-0.752484,-1.153418,15.864429,46.035545,111.267464
722,1002761895,-37.431217,-48.105076,111.290482,-0.735717,-2.261976,-0.242057,8.135696,61.240898,135.473679
723,1002778562,-38.530674,-45.666473,112.723244,2.265191,-2.184719,1.315982,-1.797220,77.812927,136.140213
724,1002795229,-39.066616,-42.932323,114.128311,4.003259,-1.176580,1.680654,28.120447,88.683380,149.581009
725,1002811896,-38.939575,-39.884705,115.589478,5.252666,-0.700492,1.700705,66.998810,99.352516,165.930527
726,1002828563,-38.178738,-36.645462,117.077255,5.118009,-1.493874,1.482668,102.320724,106.922653,175.688095
727,1002845230,-36.853039,-33.487125,118.588776,5.190517,-1.494554,1.415550,133.016571,103.739098,173.993073
728,1002861897,-35.042419,-30.372179,120.322159,3.778746,-0.741698,1.569590,165.011276,98.104904,180.882736
729,1002878564,-33.173721,-27.396927,122.380165,2.542837,-1.073852,1.375217,173.134369,85.782181,189.331635
730,1002895231,-31.596910,-24.368526,124.766304,-0.016843,-0.360544,2.236702,158.469650,83.029076,205.814011
731,1002911898,-30.791876,-21.181974,127.365082,-0.347784,-0.511172,2.150031,110.015274,87.657494,221.719910
732,1002928565,-30.562372,-17.981297,130.217712,0.495747,-0.754774,2.644712,72.475967,81.455132,236.388702
733,1002945232,-30.710375,-14.847021,133.281540,1.758555,-1.047157,2.969912,44.394779,70.509720,247.269852
734,1002961899,-31.081261,-11.872228,136.543457,2.642838,-1.329207,3.238957,24.283064,53.943703,254.757156
735,1002978566,-31.587372,-9.135736,140.054306,3.169054,-1.064403,3.735553,9.331968,31.089399,261.990631
736,1002995233,-32.130417,-6.728714,143.922760,3.089928,-0.544834,4.254698,0.722856,-0.113340,271.150757
737,1003011900,-32.709412,-4.718693,148.222733,3.024237,0.153532,4.580731,-7.753933,-37.256561,281.012238
738,1003028567,-33.251644,-3.126884,152.995956,2.723413,0.866583,4.338833,-11.706628,-76.839844,291.321594
739,1003045234,-33.693787,-1.942186,158.269836,2.437337,1.739418,3.594540,-11.326090,-116.444481,302.517059
740,1003061901,-34.033699,-1.106766,163.996872,2.108853,2.283494,3.097874,-10.065076,-151.156372,312.812927
741,1003078568,-34.291996,-0.608963,170.136429,1.675163,2.551443,2.716610,-8.816393,-183.449554,321.195374
742,1003095235,-34.669937,-0.329296,176.595123,0.714387,2.254524,2.301724,-18.345480,-206.835587,328.584869
743,1003111902,-35.394173,-0.145503,-176.813736,0.366245,2.032124,2.076652,-40.651653,-219.241608,329.838074
744,1003128569,-36.435253,-0.114121,-170.296188,0.777187,1.937318,2.026597,-60.411945,-229.080048,317.528595
745,1003145236,-37.676910,-0.397323,-163.965179,1.137570,1.713784,2.027251,-71.641937,-243.628693,292.637421
746,1003161903,-38.983521,-1.042599,-157.894852,1.075307,1.504970,1.846006,-72.670921,-257.366699,261.438629
747,1003178570,-40.318035,-2.007262,-152.132736,0.874893,1.212928,1.672596,-69.736732,-266.192993,228.956406
748,1003195237,-41.704842,-3.187832,-146.718567,0.822826,1.230686,1.513570,-67.363762,-267.472382,198.207916
749,1003211904,-43.139305,-4.504124,-141.703125,0.878153,1.793746,1.445569,-64.772194,-261.913788,168.216003
750,1003228571,-44.561153,-5.933333,-137.016281,1.004354,2.261961,1.245089,-58.631184,-256.877991,142.386353
751,1003245238,-45.889778,-7.438378,-132.558502,0.698705,2.762867,0.836016,-47.476303,-253.231125,122.875557
752,1003261905,-47.186390,-8.951856,-128.304977,0.584407,2.987836,0.451386,-40.317612,-246.847137,107.725586
753,1003278572,-48.471340,-10.422224,-124.245789,0.346634,3.411399,0.130704,-35.012501,-238.191315,95.672478
754,1003295239,-49.692898,-11.826162,-120.379257,-0.070919,3.598080,-0.340223,-27.426764,-228.215317,85.325760
755,1003311906,-50.813911,-13.147475,-116.704025,-0.474430,3.475513,-0.743459,-18.470848,-217.260208,76.587189
756,1003328573,-51.830505,-14.353316,-113.277718,-0.962466,3.195762,-1.175922,-11.012362,-202.145508,68.196022
757,1003345240,-52.768875,-15.402982,-110.128174,-1.240979,2.649496,-1.576218,-6.653861,-184.059753,61.736790
758,1003361907,-53.653812,-16.217468,-107.368179,-1.777191,2.124373,-1.983111,-6.840883,-157.912735,56.160549
759,1003378574,-54.444523,-16.791180,-105.103317,-2.354822,2.092395,-2.059462,-7.691021,-126.724709,48.500526
760,1003395241,-55.131302,-17.159357,-103.435448,-2.479545,2.246866,-1.956346,-10.826176,-91.986389,37.015427
761,1003411908,-55.558102,-17.377785,-102.242813,-2.772230,2.323607,-1.770326,-3.184726,-64.710449,27.943438
762,1003428575,-55.691669,-17.502506,-101.370308,-2.447777,1.982071,-1.613836,8.876308,-46.495377,21.881767
763,1003445242,-55.680679,-17.459404,-100.749847,-2.732719,1.343101,-1.819329,13.059377,-28.918650,22.005713
764,1003461909,-55.720863,-17.125607,-100.470024,-2.986834,0.873894,-1.855966,3.815937,-3.005401,25.422079
765,1003478576,-55.863525,-16.528122,-100.597427,-3.618433,0.846291,-1.557816,-9.514765,25.156521,25.375664
766,1003495243,-55.940800,-15.799710,-100.985741,-4.181005,0.945610,-1.002816,-9.840008,41.988041,23.480904
767,1003511910,-55.996666,-14.928271,-101.666962,-4.027182,-0.258643,-1.246798,-12.868477,60.883030,21.103291
768,1003528577,-56.186798,-13.842482,-102.668861,-4.181183,-1.416480,-1.497815,-25.003794,83.635849,21.414358
769,1003545244,-56.591766,-12.533910,-104.111328,-4.444353,-2.408978,-1.785946,-42.676647,112.607300,18.582224
770,1003561911,-57.193661,-11.054474,-106.214569,-4.978235,-3.234038,-1.738275,-60.509144,150.940491,6.729886
771,1003578578,-57.868622,-9.495913,-109.010017,-5.490826,-2.982851,-0.887926,-68.985779,188.428207,-9.838662
772,1003595245,-58.508358,-7.938752,-112.397369,-6.172800,-1.142246,0.806011,-67.726883,218.958801,-26.618271
773,1003611912,-58.969456,-6.517222,-116.240845,-5.666207,1.517159,1.743117,-55.192150,238.818283,-45.911327
774,1003628579,-59.113251,-5.298080,-120.340080,-4.311525,2.680957,1.750949,-32.427734,246.419922,-63.212601
775,1003645246,-58.847755,-4.288205,-124.375534,-3.481974,2.667651,1.481714,-2.772381,236.990570,-72.487106
776,1003661913,-58.352272,-3.372131,-128.401886,-3.362532,2.330860,0.365478,15.135597,233.376755,-78.742531
777,1003678580,-57.858669,-2.470568,-132.474228,-3.030833,2.926172,0.316154,18.726265,234.766998,-83.069672
778,1003695247,-57.432877,-1.646816,-136.636597,-2.494961,3.516913,0.339504,18.159973,236.290268,-91.867477
779,1003711914,-57.172928,-0.886312,-140.915329,-1.908713,3.636935,0.255406,11.528584,239.641068,-100.291908
780,1003728581,-57.023499,-0.211684,-145.245422,-1.505041,3.689123,0.326738,8.102741,239.135498,-107.184578
781,1003745248,-57.011284,0.386196,-149.591888,-0.968105,3.484867,0.254893,2.773971,237.297821,-111.907166
782,1003761915,-57.223389,0.957401,-153.980865,-0.409832,3.516721,0.434174,-7.974629,238.765656,-114.210373
783,1003778582,-57.702339,1.511640,-158.418076,0.360859,3.486656,1.232714,-21.318743,241.301056,-115.142296
784,1003795249,-58.302612,1.978029,-162.847031,1.234876,3.613529,2.133704,-26.232088,239.126099,-117.029434
785,1003811916,-58.816284,2.264493,-167.213043,1.840886,3.746294,2.791010,-19.426918,231.342880,-121.889191
786,1003828583,-59.099987,2.287871,-171.488510,2.552471,3.539993,3.101644,-5.136132,219.389740,-130.984741
787,1003845250,-59.102394,2.004666,-175.670837,3.036412,2.910880,2.974115,10.953875,205.501236,-143.358322
788,1003861917,-58.831795,1.432869,-179.753876,2.918457,2.258397,2.476733,25.280872,191.205963,-155.646347
789,1003878584,-58.349514,0.586938,176.219116,2.483400,2.042483,1.947819,34.889698,178.810837,-169.229828
790,1003895251,-57.736019,-0.495988,172.173172,2.097832,2.012194,1.623216,38.696239,170.658539,-183.620438
791,1003911918,-56.997623,-1.789906,168.087677,2.037400,2.087764,1.422350,41.105568,163.646286,-197.554398
792,1003928585,-56.140347,-3.182996,163.929520,1.963264,2.301449,0.874796,42.302902,161.097534,-207.086395
793,1003945252,-55.154453,-4.587699,159.778870,2.134430,1.648046,0.445127,43.969704,156.702560,-209.783798
794,1003961919,-54.209736,-5.902498,155.605881,2.437171,0.972958,0.353527,35.484554,156.994247,-208.517029
795,1003978586,-53.399471,-7.127746,151.377823,3.657502,0.640439,1.008354,21.521263,159.165924,-208.184570
796,1003995253,-52.556709,-8.382641,147.101608,4.347698,0.097594,1.140714,17.629107,156.831787,-213.213562
797,1004011920,-51.526943,-9.656331,142.857147,3.911697,-1.039939,0.779501,23.540699,150.496429,-214.992264
798,1004028587,-50.370499,-10.907118,138.641525,3.691849,-1.149305,0.505000,25.909637,145.189346,-215.122299
799,1004045254,-49.064133,-12.073549,134.432602,3.650863,-1.606326,0.284107,29.735973,142.734650,-213.453400
800,1004061921,-47.618412,-13.236902,130.315231,3.338752,-2.151110,0.181414,34.268021,132.892654,-212.445999
801,1004078588,-46.107616,-14.418676,126.416924,3.132857,-1.958483,0.051575,36.386814,116.456062,-207.131317
802,1004095255,-44.440941,-15.620122,122.722488,2.954355,-1.743171,0.106707,44.195343,100.575691,-201.982117
803,1004111922,-42.566334,-16.866043,119.177132,2.340029,-1.653622,-0.051999,54.604607,85.576889,-199.728928
804,1004128589,-40.646313,-18.067636,115.768402,1.184095,-1.246072,-0.442600,55.445126,74.828613,-193.880692
805,1004145256,-38.883545,-19.136511,112.541290,0.519851,-0.790513,-0.430634,45.629879,67.277748,-182.224457
806,1004161923,-37.341553,-20.025421,109.486008,0.663682,-0.495683,-0.256060,32.708721,63.835842,-168.962387
807,1004178590,-35.941780,-20.758884,106.593620,0.825740,-0.509446,-0.148874,25.134487,60.977108,-156.951706
808,1004195257,-34.652740,-21.374451,103.917046,0.491964,-0.479948,0.007314,21.242765,55.640846,-143.798996
809,1004211924,-33.488892,-21.896265,101.525826,0.110276,0.077583,0.372341,18.549379,47.984035,-128.177277
810,1004228591,-32.460453,-22.314272,99.416534,0.291240,0.761675,0.609716,15.692792,41.987579,-112.180893
811,1004245258,-31.509575,-22.613754,97.563240,0.770958,0.934995,0.886868,16.181398,38.398579,-96.826775
812,1004261925,-30.512821,-22.835234,95.989380,1.036463,0.760669,1.580731,24.932871,32.713715,-81.666359
813,1004278592,-29.421867,-23.041794,94.588303,1.535870,0.270597,2.217421,34.305614,27.164742,-73.419754
814,1004295259,-28.273865,-23.207424,93.348175,1.893381,-0.224795,2.093762,41.267822,23.552752,-64.911476
815,1004311926,-26.978609,-23.376442,92.339218,1.475109,-0.467555,1.491820,55.399242,16.036612,-54.145737
816,1004328593,-25.545366,-23.624758,91.673050,0.487371,-0.662811,1.007940,71.680893,2.094727,-39.653675
817,1004345260,-24.090719,-23.975094,91.434570,0.331315,-0.661831,1.003336,83.128319,-14.351074,-20.905231
818,1004361927,-22.779428,-24.370401,91.524292,0.612054,-1.000183,1.313601,82.507530,-24.490852,-5.129616
819,1004378594,-21.696632,-24.717690,91.883362,0.465664,-1.231748,1.067047,75.543610,-27.486536,10.036590
820,1004395261,-20.826300,-25.010475,92.664764,-0.571609,-0.954744,0.724254,73.560158,-32.590466,33.044357
821,1004411928,-20.224453,-25.426775,94.249886,-1.082725,-0.188307,0.296790,78.258194,-54.366215,71.590828
822,1004428595,-19.987232,-25.740009,96.397224,0.932849,1.359572,-0.640514,71.495018,-58.412304,102.438629
823,1004445262,-19.894522,-25.798147,98.639404,1.864137,-0.347440,-0.323286,65.682693,-45.414513,112.457947
824,1004461929,-19.580786,-25.651127,101.008331,0.535788,-1.567860,-0.449741,82.162666,-35.772060,123.249840
825,1004478596,-19.317364,-25.102983,103.404488,-3.044458,-3.276805,0.098205,79.073227,-13.096044,133.172562
826,1004495263,-20.017368,-23.995327,105.473228,-4.938572,-5.766903,0.535321,11.215577,23.692894,128.431335
827,1004511930,-21.435061,-22.633663,107.301567,-4.040218,-6.460007,-0.709683,-40.024422,39.828377,122.901588
828,1004528597,-23.236557,-21.197731,108.734818,-2.211621,-5.590033,-1.886048,-74.405815,48.406834,106.308990
829,1004545264,-24.907873,-19.903465,109.835007,-0.427730,-5.259576,-2.781866,-75.534805,44.680447,87.913399
830,1004561931,-26.275393,-19.061739,110.593193,-0.058232,-5.242988,-3.441830,-65.328682,25.987284,60.283306
831,1004578598,-27.369484,-18.700111,111.178444,-0.049786,-4.486231,-3.196615,-52.749146,3.304812,39.220562
832,1004595265,-28.305393,-18.787582,111.537521,-0.609206,-3.898746,-3.209629,-47.708199,-15.263178,15.368146
833,1004611932,-29.222551,-19.236826,111.635719,-1.103969,-3.300370,-3.981736,-51.599045,-27.425854,-8.313754
834,1004628599,-30.169714,-20.034946,111.451530,-1.412485,-3.753466,-4.553121,-59.044895,-37.575970,-32.991814
835,1004645266,-30.980957,-21.244801,111.168839,-1.771684,-4.161571,-4.708581,-53.169621,-55.577896,-50.819393
836,1004661933,-31.591551,-22.862026,110.835274,-1.609965,-4.216711,-4.703707,-42.683594,-74.465813,-66.472153
837,1004678600,-31.979301,-24.843580,110.389549,-0.952326,-4.339457,-4.663338,-32.629360,-89.375420,-83.648880
838,1004695267,-32.085262,-27.136484,109.672974,-0.707116,-4.659593,-4.673150,-23.759289,-97.351608,-105.962234
839,1004711934,-31.842558,-29.672544,108.762360,-1.433948,-4.748737,-4.657754,-10.002864,-104.895248,-121.567657
840,1004728601,-31.364790,-32.313393,107.859428,-2.581945,-4.460690,-4.257456,2.186635,-111.892853,-122.820625
841,1004745268,-30.918427,-34.901947,107.059143,-2.589563,-3.753721,-3.538505,1.614613,-113.560303,-114.769981
842,1004761935,-30.601969,-37.322456,106.214668,-1.633884,-3.023894,-2.840559,-9.481419,-105.192429,-109.676659
843,1004778602,-30.267464,-39.539745,105.395645,-0.926881,-1.898627,-2.195601,-9.075410,-96.559921,-100.795807
844,1004795269,-29.791042,-41.526299,104.553535,-1.056191,-1.353068,-1.531182,-2.849279,-85.342651,-93.104401
845,1004811936,-29.271412,-43.269127,103.893341,-1.720705,-0.694536,-1.125912,5.866832,-77.939140,-77.203850
846,1004828603,-28.911242,-44.735779,103.586464,-2.308013,-0.009421,-0.518389,10.222292,-71.841812,-54.555077
847,1004845270,-28.908855,-45.807007,103.628189,-1.456705,-0.051932,-0.162800,3.320679,-58.498707,-29.712822
848,1004861937,-28.974287,-46.513199,103.810234,0.861161,-0.725179,-0.244776,5.347503,-42.124077,-14.057233
849,1004878604,-28.718132,-47.038803,104.176956,1.227060,-0.970011,-0.467774,32.801746,-36.279747,-2.192120
850,1004895271,-28.360558,-47.505833,104.967896,0.112168,-0.941171,-0.263757,57.716000,-41.389996,14.719116
851,1004911938,-28.283279,-47.773361,106.275017,-0.569437,-0.126365,-0.084044,63.986649,-40.594311,38.731354
852,1004928605,-28.539129,-47.658714,108.029091,0.109225,-0.027803,0.042834,63.899521,-29.032808,65.388138
853,1004945272,-28.814680,-47.194733,109.888947,1.681167,-0.240832,0.094886,67.022598,-13.194598,79.432106
854,1004961939,-28.948172,-46.476910,111.720520,2.084918,-0.714326,0.384513,73.532265,0.008075,86.472122
855,1004978606,-29.090469,-45.654659,113.642754,2.254329,-0.765159,0.615167,75.892456,2.930723,93.740829
856,1004995273,-29.486727,-44.566895,115.729591,2.563108,-0.156206,1.377661,66.306656,12.295326,108.824104
857,1005011940,-30.137674,-43.228779,117.775040,3.302383,-0.010719,1.728737,47.410583,24.300026,116.456902
858,1005028607,-30.816294,-41.772793,119.587486,4.118820,-0.149994,2.018527,34.124454,33.232162,113.204285
859,1005045274,-31.317022,-40.469589,121.287033,3.688860,-0.516044,2.437989,38.394405,25.944931,105.929764
860,1005061941,-31.771910,-39.274761,123.119911,1.824895,-0.225705,2.724945,44.586395,15.545488,109.201042
861,1005078608,-32.475727,-38.205566,125.355377,1.053463,-0.429539,2.385673,43.078068,-2.693642,122.468681
862,1005095275,-33.479794,-37.126305,128.011322,1.238643,-0.152601,2.281362,38.497383,-15.737200,140.820312
863,1005111942,-34.676823,-36.045547,130.999725,1.875903,0.184013,2.336700,36.401646,-28.355906,155.326324
864,1005128609,-35.972637,-35.037498,134.214462,2.790504,0.040642,2.105687,35.719437,-42.790169,162.759323
865,1005145276,-37.171101,-34.098396,137.573456,3.050857,0.893683,1.891000,43.786911,-55.023617,166.589767
866,1005161943,-38.159531,-33.244194,141.036880,2.822529,1.183003,1.939802,57.231159,-66.481384,167.928696
867,1005178610,-38.941597,-32.479565,144.592239,2.062779,1.296648,1.578030,70.147545,-77.163231,168.435760
868,1005195277,-39.589493,-31.756979,148.294174,1.216047,1.359169,1.377419,80.525162,-86.861427,172.794876
869,1005211944,-40.134445,-31.083735,152.142975,0.719698,1.411393,1.372128,88.986412,-96.656410,176.871033
870,1005228611,-40.596111,-30.422886,156.094971,0.353415,1.562657,1.147989,94.835991,-103.110344,180.667496
871,1005245278,-41.028126,-29.762383,160.055298,0.462861,1.755187,0.617734,94.487946,-105.697716,181.229065
872,1005261945,-41.460686,-28.985550,163.791824,-0.966217,2.140017,0.847026,85.283875,-95.078468,177.377823
873,1005278612,-42.084553,-28.070210,167.075287,-0.818428,1.790566,0.813292,57.917347,-75.640434,165.428268
874,1005295279,-42.712524,-27.033527,169.880386,-0.846425,1.972250,0.829082,41.428001,-55.956253,151.901443
875,1005311946,-43.206570,-25.974974,172.268082,-0.454408,1.681998,0.701913,35.541023,-42.137711,136.879105
876,1005328613,-43.438309,-24.990116,174.332993,0.280166,1.785439,0.665090,40.651852,-34.981968,121.690231
877,1005345280,-43.453247,-24.130083,176.181885,1.239800,1.365459,1.016807,46.466721,-33.143806,108.523041
878,1005361947,-43.358719,-23.372498,177.978195,1.317946,1.039894,1.195027,50.336109,-35.982491,102.682739
879,1005378614,-43.292377,-22.758808,179.924881,1.200382,1.222735,1.163422,50.995369,-48.165951,103.217606
880,1005395281,-43.329231,-22.255331,-177.975403,1.018749,1.165346,0.986331,47.270756,-59.067478,105.181206
881,1005411948,-43.467976,-21.842543,-175.685684,1.079059,1.487199,0.805220,44.503525,-70.698303,109.304970
882,1005428615,-43.707317,-21.518761,-173.254074,1.119324,1.539670,0.524549,40.796707,-80.606827,111.362617
883,1005445282,-44.011494,-21.333670,-170.580460,1.095754,1.682273,0.452195,41.607075,-96.655624,115.129082
884,1005461949,-44.385223,-21.250071,-167.746323,0.468351,1.411786,0.166351,40.584568,-108.053688,116.850212
885,1005478616,-44.919033,-21.168163,-164.819946,0.117422,1.281634,0.099305,32.750904,-112.726105,119.660561
886,1005495283,-45.468090,-21.134415,-161.782532,0.310917,1.062960,0.384188,34.077110,-120.341606,120.982422
887,1005511950,-45.929428,-21.248108,-158.458130,0.345341,0.378209,0.412598,45.678856,-139.028214,124.777107
888,1005528617,-46.422310,-21.424484,-154.860550,-0.121175,-0.069338,0.039912,50.214668,-153.549667,131.372299
889,1005545284,-47.180470,-21.533493,-151.192734,-0.568486,-0.015598,-0.354690,36.338955,-154.913696,135.203629
890,1005561951,-48.249481,-21.489784,-147.677475,-1.191301,0.320962,-0.429562,14.446376,-144.541931,133.760315
891,1005578618,-49.588856,-21.285086,-144.558136,-1.740303,0.286676,-0.283043,-10.861517,-124.425819,123.589653
892,1005595285,-51.088943,-21.019726,-141.657104,-2.516243,0.436159,-0.132043,-25.938332,-115.932434,115.694870
893,1005611952,-52.753986,-20.656002,-139.153091,-3.132059,-0.587806,-1.083641,-45.198303,-98.168190,103.611145
894,1005628619,-54.725266,-20.099911,-137.040573,-3.273744,-0.539964,-1.509152,-72.867455,-77.167336,97.041954
895,1005645286,-57.130608,-19.295073,-135.465073,-3.403473,-0.758390,-2.104089,-111.174110,-47.741631,89.740227
896,1005661953,-60.099110,-18.223671,-134.477737,-3.182641,0.054976,-1.874705,-157.760513,-15.464986,83.990303
897,1005678620,-63.504627,-16.966076,-134.041626,-2.604149,1.088079,-0.684431,-195.108475,12.631603,78.196648
898,1005695287,-67.256065,-15.681497,-134.084579,-2.640032,1.871718,-0.539895,-224.475433,33.316162,68.957291
899,1005711954,-71.156799,-14.454256,-134.513199,-3.015150,2.652793,-0.372211,-239.378403,48.341965,59.930977
900,1005728621,-74.985680,-13.350390,-135.244736,-3.369234,3.591188,-0.104631,-238.899643,59.033108,50.860802
901,1005745288,-78.517395,-12.462679,-136.036804,-2.733167,3.928613,0.800880,-221.107071,56.283802,41.124821
902,1005761955,-81.691422,-11.758137,-136.913361,-2.234150,2.748154,0.879480,-200.037750,56.912434,32.691425
903,1005778622,-84.576195,-11.191729,-137.750824,-1.374884,1.629852,0.863336,-181.625107,51.947460,27.733570
904,1005795289,-87.013634,-10.658160,-138.321793,-0.915248,1.128242,0.863827,-151.269730,34.884144,29.340300
905,1005811956,-89.184906,-10.198177,-138.873627,-0.700681,0.394347,0.534619,-134.791565,32.450729,26.380915
906,1005828623,-91.030640,-9.739826,-139.494247,-0.627780,-0.260617,0.341352,-115.708420,35.617477,27.448298
907,1005845290,-92.365044,-9.358516,-140.124619,-0.145862,-0.742476,1.259955,-84.857719,35.597260,23.856728
908,1005861957,-93.119217,-9.092647,-140.794174,-0.474291,0.034405,1.755290,-50.213562,37.835613,17.717560
909,1005878624,-93.261658,-9.011667,-141.608505,-0.684087,-0.026785,2.216122,-14.754156,46.892262,7.425602
910,1005895291,-92.815781,-9.058119,-142.525543,-0.572578,0.213421,2.107718,19.592791,53.391689,-0.009387
911,1005911958,-91.849930,-9.195406,-143.523102,-1.162891,0.557056,1.544428,49.937397,58.367458,-5.928862
912,1005928625,-90.641869,-9.408729,-144.762085,-1.871621,1.042103,1.112700,61.953312,72.610260,-11.300216
913,1005945292,-89.404602,-9.661952,-146.347382,-2.418518,1.534336,0.740724,59.975639,92.797417,-15.247064
914,1005961959,-88.284721,-9.936306,-148.291077,-2.582697,1.839354,0.342939,48.854515,113.560326,-18.857773
915,1005978626,-87.361130,-10.172013,-150.580582,-2.828191,2.023783,-0.281384,32.959595,133.623337,-19.342567
916,1005995293,-86.787560,-10.340215,-153.237900,-2.789685,2.058209,-0.687007,7.576128,155.159698,-18.146074
917,1006011960,-86.542725,-10.442918,-156.261505,-2.408995,2.908315,0.117499,-16.466675,176.775955,-16.576948
918,1006028627,-86.394539,-10.570621,-159.511810,-1.903972,3.132258,0.278017,-25.083668,189.917770,-19.491070
919,1006045294,-86.267616,-10.668997,-162.875000,-1.759255,2.763749,-0.034605,-27.971746,196.560211,-18.603369
920,1006061961,-86.268417,-10.687614,-166.297394,-1.457998,1.913221,-0.330163,-36.478264,200.302628,-14.258265
921,1006078628,-86.334106,-10.620031,-169.693619,-1.140097,2.168893,0.314960,-39.989090,199.122803,-8.868101
922,1006095295,-86.272522,-10.593622,-173.055161,-0.661671,2.853863,1.299575,-31.802576,196.953827,-11.181350
923,1006111962,-86.041588,-10.666277,-176.395172,-0.478209,2.827901,1.714808,-21.476761,195.250992,-17.518557
924,1006128629,-85.612717,-10.854182,-179.728226,-0.083567,3.065666,2.112535,-9.967892,194.155991,-25.495403
925,1006145296,-84.911133,-11.151861,176.991730,0.447540,2.880349,1.929875,6.174247,190.090210,-33.700886
926,1006161963,-83.997261,-11.662723,173.747772,1.888782,3.236567,2.722077,17.981535,185.979691,-48.879715
927,1006178630,-82.792252,-12.461658,170.469376,2.854031,3.161186,2.726667,32.839432,184.630630,-69.675133
928,1006195297,-81.287292,-13.531469,167.197327,3.331958,2.317596,2.231483,47.792641,179.650467,-89.996216
929,1006211964,-79.593369,-14.832412,163.962997,2.876589,1.635543,1.365173,55.739117,171.660339,-108.159630
930,1006228631,-77.881813,-16.210354,160.739960,2.410581,1.666650,0.986742,52.593006,165.708130,-117.424644
931,1006245298,-76.214554,-17.694998,157.322098,3.271857,1.930836,1.358391,41.883621,170.336029,-130.727020
932,1006261965,-74.552452,-19.317404,153.754684,4.137601,0.902445,1.356502,33.429123,170.995316,-145.368011
933,1006278632,-72.799522,-21.054356,150.130325,4.355294,0.560704,1.269973,31.772490,165.759018,-157.350540
934,1006295299,-70.888680,-22.877159,146.508652,3.807039,0.318366,1.042337,35.005493,156.584473,-166.697006
935,1006311966,-68.822655,-24.734768,142.954346,2.746302,0.333921,0.723539,39.506542,144.001221,-171.833038
936,1006328633,-66.665512,-26.525927,139.464859,2.221397,0.424994,0.696008,40.489372,133.204849,-170.963852
937,1006345300,-64.450981,-28.163445,135.983963,2.038545,0.316434,0.834034,38.549438,127.473381,-166.230606
938,1006361967,-62.046970,-29.598099,132.599625,1.813515,0.435303,0.740013,47.784000,119.254883,-156.924728
939,1006378634,-59.319981,-30.754246,129.355637,2.042442,1.003217,0.715303,67.390816,111.992699,-142.917496
940,1006395301,-56.298153,-31.660860,126.233238,2.093827,0.272948,0.789351,85.849182,105.878799,-131.456711
941,1006411968,-53.061478,-32.370724,123.280746,1.956750,-0.299797,0.734661,101.891045,97.202751,-121.672333
942,1006428635,-49.709187,-32.899189,120.503906,1.731195,-0.773037,0.471943,112.899635,89.108063,-112.430374
943,1006445302,-46.459419,-33.236523,117.762474,1.730537,-1.205789,0.134555,106.837563,88.328468,-107.261452
944,1006461969,-43.269428,-33.580902,115.286324,1.240636,-2.691122,-0.185481,111.199539,72.112289,-102.609741
945,1006478636,-40.420788,-33.931381,113.126648,0.124994,-2.261805,-0.217690,100.520744,55.461277,-94.433250
946,1006495303,-37.895741,-34.177872,111.351868,0.563697,-1.028002,0.050565,93.475830,43.481815,-77.902184
947,1006511970,-35.505062,-34.364326,109.993637,0.346142,-1.094223,-0.115803,99.149086,30.515049,-60.850143
948,1006528637,-33.202389,-34.563358,109.175209,0.451332,-1.044607,-0.134902,111.968758,12.217638,-40.343315
949,1006545304,-31.034300,-34.818947,108.932014,0.009225,-0.363137,0.278931,123.376129,-7.388351,-18.505913
950,1006561971,-29.222807,-34.923309,109.169090,-0.545047,0.413526,0.279549,118.417000,-12.059139,6.754874
951,1006578638,-27.884377,-34.574245,109.626778,-0.158594,0.883257,-0.230719,97.549896,6.825338,29.625256
952,1006595305,-26.917564,-33.819736,109.986389,-0.518295,-1.404235,0.040135,71.733971,31.190933,36.479565
953,1006611972,-26.267002,-32.759781,110.334358,-1.026073,-2.149609,0.148223,52.084900,48.258469,43.867981
954,1006628639,-25.825069,-31.560463,110.798767,-1.499722,-3.283988,0.597607,42.935535,53.475658,52.588413
955,1006645306,-25.871609,-30.155849,111.302986,-1.491857,-3.205848,-0.243091,14.305634,63.679234,59.920773
956,1006661973,-26.442089,-28.579029,111.679062,-0.769812,-4.243896,-0.729962,-21.590857,75.386452,59.167141
957,1006678640,-27.231203,-27.028543,112.032272,0.066901,-4.141429,-1.476120,-35.894661,73.648827,58.546284
958,1006695307,-27.791101,-25.690474,112.364555,-0.191790,-3.658714,-1.729892,-23.183126,62.028069,52.747784
959,1006711974,-28.283022,-24.624498,112.718178,-1.166243,-4.281099,-1.520961,-18.947460,46.477657,46.827545
960,1006728641,-28.971334,-23.779333,113.000771,-1.368236,-3.894249,-1.771152,-32.816818,36.127842,37.683769
961,1006745308,-29.887691,-23.136904,113.008286,-0.993520,-4.571507,-2.069997,-53.282524,32.369873,19.121428
962,1006761975,-30.872295,-22.911491,112.641388,-0.921558,-5.284806,-2.685037,-66.183266,20.889240,-10.821144
963,1006778642,-31.687710,-23.361183,111.865547,-1.270206,-5.483297,-3.423937,-65.726341,-1.892274,-50.771175
964,1006795309,-32.180855,-24.611296,110.918503,-1.979421,-5.232213,-4.141149,-51.220688,-37.275982,-83.926025
965,1006811976,-32.443981,-26.460379,109.964951,-1.880379,-4.299720,-4.288048,-39.000034,-67.285370,-103.118790
966,1006828643,-32.579464,-28.692354,108.997948,-1.223677,-4.174886,-3.725210,-33.558739,-86.423996,-115.539894
967,1006845310,-32.611107,-31.160955,108.002296,-1.086226,-3.831509,-3.007167,-30.280752,-98.057564,-123.602356
968,1006861977,-32.675003,-33.646465,107.042961,-1.451464,-3.015423,-2.069016,-33.267555,-100.545692,-121.559006
969,1006878644,-32.815994,-35.958397,106.105469,-1.639058,-2.140654,-1.081846,-39.156013,-92.891762,-114.076752
970,1006895311,-33.017498,-38.004158,105.104309,-1.217902,-1.431645,-0.770424,-46.813610,-78.188789,-107.169243
971,1006911978,-33.237030,-39.801403,103.906425,-0.818047,-1.724942,-1.040384,-56.907932,-60.967369,-105.965202
972,1006928645,-33.413353,-41.449329,102.689438,-1.433292,-1.882082,-1.454640,-56.714706,-53.413086,-100.817619
973,1006945312,-33.604519,-43.041996,101.700455,-1.724128,-1.864089,-1.508474,-49.958740,-56.684193,-89.571075
974,1006961979,-33.898659,-44.556309,100.870003,-1.093027,-1.641713,-1.449914,-50.734921,-56.832268,-80.572830
975,1006978646,-34.087727,-46.003242,100.138702,-0.357103,-1.489941,-1.588767,-41.119984,-55.998035,-74.327400
976,1006995313,-34.026352,-47.426281,99.547020,-0.317811,-1.428962,-1.631524,-20.751774,-58.398254,-68.167580
977,1007011980,-33.779099,-48.819176,99.160149,-0.511369,-1.134149,-1.349222,-1.048073,-62.018017,-59.675835
978,1007028647,-33.373497,-50.146835,98.966644,-0.554804,-0.858210,-0.722513,16.915157,-63.502838,-50.534714
979,1007045314,-32.781288,-51.394356,98.839943,-0.496504,-0.728022,-0.232241,31.049255,-61.408386,-45.068115
980,1007061981,-32.144028,-52.553825,98.914314,-0.804586,-0.380986,0.153813,43.160019,-61.489559,-35.205399
981,1007078648,-31.648581,-53.538738,99.224335,-0.693824,0.194056,0.242986,45.998463,-57.399647,-21.906803
982,1007095315,-31.373302,-54.249413,99.754562,0.088872,1.097990,-0.274312,43.625801,-47.468513,-6.471464
983,1007111982,-31.021746,-54.623039,100.492317,1.615362,1.676043,-1.425615,58.509506,-33.821648,10.251106
984,1007128649,-30.446009,-54.921253,101.511826,2.107831,0.096552,-1.988466,85.921127,-34.706509,21.023453
985,1007145316,-29.988865,-55.316692,103.048508,1.478989,-0.871068,-1.453092,104.477440,-48.327145,33.457909
986,1007161983,-30.125288,-55.550728,105.151482,0.343452,-0.505846,-0.233337,97.133781,-49.300304,54.761978
987,1007178650,-30.746984,-55.449875,107.466431,0.401526,-0.606848,0.662752,78.580498,-35.928703,70.731720
988,1007195317,-31.565092,-55.131771,109.892136,0.362137,-1.601053,0.281170,71.965256,-27.838230,80.633072
989,1007211984,-32.655884,-54.624897,112.571526,-0.478625,-2.090257,-0.423610,67.451065,-24.710566,94.343117
990,1007228651,-34.231434,-53.894402,115.572746,-0.254708,-2.309315,-0.814948,53.020134,-22.714388,111.757553
991,1007245318,-36.225929,-52.979942,118.980255,0.978305,-2.028244,-0.930561,45.936146,-26.772087,130.971954
992,1007261985,-38.462456,-51.867950,122.687767,2.151875,-1.720087,-0.829821,43.498150,-30.596270,148.142090
993,1007278652,-40.815350,-50.512386,126.672241,2.453128,-1.171178,-1.178296,46.495262,-34.311337,167.071976
994,1007295319,-43.158863,-49.024853,130.785019,2.306605,-0.998336,-1.070549,49.153469,-41.641914,177.958603
995,1007311986,-45.471149,-47.374329,134.958649,2.583460,-0.668099,-0.374770,49.308994,-47.115692,188.384705
996,1007328653,-47.795349,-45.495739,139.192169,3.115646,-0.336570,0.291592,45.954254,-51.229084,201.897324
997,1007345320,-50.002426,-43.462860,143.284485,3.131003,0.448518,0.733094,40.966408,-53.201954,206.831741
998,1007361987,-52.056541,-41.434151,147.008820,2.602354,1.055632,1.054347,28.889528,-52.977921,198.067963
999,1007378654,-53.910561,-39.399170,150.429352,2.202453,1.417330,1.858978,23.137163,-52.585144,191.299393
1000,1007395321,-55.573502,-37.303917,153.576675,1.628059,1.891849,1.904408,18.702900,-49.668518,187.875458
1001,1007411988,-57.091385,-35.169350,156.382019,1.668457,1.281245,1.770304,9.713346,-43.272884,181.583221
1002,1007428655,-58.457050,-33.058392,159.058914,1.530693,0.875895,1.655303,9.429434,-46.227303,177.787140
1003,1007445322,-59.560944,-31.005394,161.877029,2.005177,0.586863,1.800845,24.727283,-60.716251,179.124237
1004,1007461989,-60.433083,-29.057713,164.904175,2.330898,0.632537,2.275992,39.834400,-78.980553,179.537949
1005,1007478656,-60.949261,-27.217016,168.122574,2.269009,0.605537,2.331938,61.352661,-95.674530,179.371689
1006,1007495323,-61.208195,-25.500187,171.506775,1.552453,0.257267,2.021631,75.853638,-110.664993,177.849884
1007,1007511990,-61.277924,-23.856211,175.037613,1.065975,0.061521,1.923942,85.491058,-122.535591,178.789520
1008,1007528657,-61.177097,-22.283560,178.598602,0.863610,0.011384,1.848965,90.982529,-128.108276,177.039322
1009,1007545324,-60.830124,-20.811565,-177.865829,0.685951,0.220535,1.733568,99.913918,-130.968964,172.618469
1010,1007561991,-60.220070,-19.474979,-174.482040,0.613649,0.075039,1.298697,107.692688,-127.681389,163.345901
1011,1007578658,-59.367664,-18.236130,-171.191895,0.701536,0.151095,1.191905,116.105621,-125.249413,157.987762
1012,1007595325,-58.281109,-17.106995,-167.887344,0.557285,0.575103,1.460938,126.525528,-127.743156,155.530502
1013,1007611992,-57.013878,-16.081964,-164.612076,0.614254,1.252494,1.795893,133.295776,-127.356323,152.522644
1014,1007628659,-55.688751,-15.169676,-161.381210,0.654628,2.085532,2.072410,132.859558,-126.237961,148.807236
1015,1007645326,-54.511501,-14.379382,-158.281723,0.285840,2.688452,1.793973,119.206444,-121.499733,141.579330
1016,1007661993,-53.595455,-13.626228,-155.347534,-0.272949,3.571248,1.492332,98.723206,-112.894958,136.664322
1017,1007678660,-52.825230,-13.004580,-152.485703,-0.196685,3.802191,1.533521,86.940094,-112.597496,129.744614
1018,1007695327,-52.268173,-12.517806,-149.722717,-0.456512,3.191952,0.979362,71.244667,-111.707542,121.313644
1019,1007711994,-52.095276,-12.124202,-147.086304,-0.799539,2.642535,0.490644,45.350952,-108.700996,113.215668
1020,1007728661,-52.244469,-11.836532,-144.599091,-1.019313,2.512177,0.408350,23.264957,-105.807396,102.969307
1021,1007745328,-52.598030,-11.677094,-142.194122,-1.311753,2.556662,0.483492,9.445176,-107.214035,93.542603
1022,1007761995,-52.986156,-11.685360,-139.848907,-1.807229,2.261125,0.477199,6.472954,-111.126274,82.737968
1023,1007778662,-53.425514,-11.824449,-137.637131,-2.395204,1.927679,0.521028,1.960803,-110.110733,70.943024
1024,1007795329,-53.804092,-12.108098,-135.549957,-2.910189,1.650317,0.458661,4.556396,-109.788315,58.791248
1025,1007811996,-54.102486,-12.495549,-133.643173,-3.348014,1.046357,0.043712,7.796955,-105.112259,46.801483
1026,1007828663,-54.381870,-12.914873,-132.016159,-3.528933,0.511292,-0.131567,6.053908,-93.031410,35.068542
1027,1007845330,-54.612988,-13.349812,-130.692017,-3.557287,0.457814,-0.243861,5.548351,-79.180450,23.532499
1028,1007861997,-54.698143,-13.791607,-129.680374,-3.565233,0.498125,-0.452370,10.518884,-64.496490,12.367726
1029,1007878664,-54.689350,-14.183549,-129.071915,-3.507343,0.568181,-0.653326,10.757236,-43.521980,1.147540
1030,1007895331,-54.535606,-14.493697,-128.849030,-3.226247,0.550467,-0.665778,13.963113,-22.350840,-7.796589
1031,1007911998,-54.228931,-14.677938,-128.964676,-3.100303,0.461603,-0.583062,18.097178,-1.980852,-13.020137
1032,1007928665,-53.832870,-14.724126,-129.437973,-2.952114,0.882012,-0.414065,18.021999,19.604996,-18.490898
1033,1007945332,-53.339024,-14.689015,-130.238998,-2.675568,1.213623,-0.377150,18.910883,37.669811,-26.011152
1034,1007961999,-52.738815,-14.636730,-131.242172,-2.370207,1.029359,-0.469826,22.277182,47.424362,-32.611164
1035,1007978666,-52.074551,-14.628865,-132.277740,-2.335663,0.924561,-0.395795,25.671749,46.947533,-36.410137
1036,1007995333,-51.442806,-14.703065,-133.270798,-2.578560,1.277796,-0.277195,24.347450,41.545639,-39.279366
1037,1008012000,-50.973335,-14.822879,-134.205856,-2.597096,1.675540,-0.107437,15.419111,36.811607,-39.690746
1038,1008028667,-50.662312,-14.968901,-135.066406,-2.698519,1.904475,-0.202715,6.952995,32.181541,-38.415714
1039,1008045334,-50.553699,-15.109430,-135.910446,-2.730467,1.831109,-0.309912,-5.038215,31.490923,-37.654270
1040,1008062001,-50.692146,-15.180173,-136.915482,-2.938985,1.804734,-0.211066,-22.457493,41.353741,-40.304813
1041,1008078668,-51.080257,-15.156598,-138.250778,-2.854863,1.513407,0.025850,-42.623207,59.948421,-47.777111
1042,1008095335,-51.639652,-15.055920,-139.941467,-2.599183,1.045990,0.326596,-58.356762,79.335007,-56.519470
1043,1008112002,-52.261105,-14.898881,-141.940109,-2.357656,0.554382,0.513481,-66.620712,96.110840,-64.056931
1044,1008128669,-52.990475,-14.668011,-144.292740,-1.916088,0.357752,0.613393,-78.113838,115.959740,-71.903046
1045,1008145336,-53.778355,-14.424876,-146.951614,-1.420699,1.402239,1.104311,-85.668785,131.740723,-80.439835
1046,1008162003,-54.402576,-14.232190,-149.842300,-1.097237,2.437118,1.321540,-78.700676,141.989441,-89.232162
1047,1008178670,-54.759388,-14.128691,-152.893097,-0.697980,3.121650,1.372507,-64.571060,147.336136,-97.822166
1048,1008195337,-54.764008,-14.136730,-156.012665,-0.416988,3.483214,1.130890,-44.293533,147.080673,-105.141373
1049,1008212004,-54.475399,-14.221455,-159.246674,-0.233391,3.483078,0.620815,-28.523050,149.565399,-113.093727
1050,1008228671,-53.988014,-14.327788,-162.629639,-0.024952,3.444599,0.259080,-19.108242,155.008759,-120.176399
1051,1008245338,-53.367210,-14.415825,-166.163040,0.192726,3.277429,-0.023530,-13.670645,161.469437,-125.915466
1052,1008262005,-52.664364,-14.465320,-169.818634,0.341913,3.168186,-0.410748,-10.819224,167.028885,-130.167404
1053,1008278672,-51.989761,-14.400947,-173.611008,0.420975,3.020985,-0.918336,-14.529696,175.935013,-131.629547
1054,1008295339,-51.418232,-14.143419,-177.569305,0.810041,3.077201,-1.167793,-22.544960,189.385513,-130.528671
1055,1008312006,-50.978855,-13.704662,178.348587,1.769791,2.969908,-0.797069,-30.856531,200.934189,-128.459106
1056,1008328673,-50.620846,-13.175783,174.215759,3.075854,3.108612,-0.026571,-34.432278,206.129883,-127.846161
1057,1008345340,-50.186531,-12.654725,170.132996,4.103958,3.027280,0.299036,-26.971661,203.094345,-128.107269
1058,1008362007,-49.599552,-12.183943,166.236130,4.280282,1.846266,0.126498,-13.338836,192.018509,-125.506630
1059,1008378674,-49.062088,-11.691231,162.530502,3.500130,1.051134,-0.230302,-12.015058,183.440903,-119.363663
1060,1008395341,-48.719711,-11.129430,158.894836,3.319795,1.080555,0.012678,-20.880255,182.451828,-115.221138
1061,1008412008,-48.509880,-10.559757,155.242950,3.947648,1.321714,0.806315,-26.905819,183.242523,-116.663185
1062,1008428675,-48.177799,-10.113765,151.606583,4.195405,0.922199,1.183025,-17.494875,177.338394,-122.705330
1063,1008445342,-47.638031,-9.854410,148.077698,3.199003,-0.057156,1.228590,-2.594695,164.360413,-128.273209
1064,1008462009,-46.997154,-9.794502,144.687881,1.179699,-0.473959,1.039159,5.474480,148.943207,-133.253967
1065,1008478676,-46.415333,-9.887683,141.362518,-0.749606,-0.019394,1.141622,2.517308,138.458664,-138.919510
1066,1008495343,-45.858631,-10.056503,138.108215,-1.641987,0.998639,1.799224,1.285713,130.841492,-140.578964
1067,1008512010,-45.262924,-10.270633,134.954666,-0.475945,1.902751,3.216965,4.033065,123.203293,-139.569931
1068,1008528677,-44.340584,-10.639899,131.869843,2.051427,1.441391,4.701860,23.416679,111.786575,-144.751923
1069,1008545344,-42.801693,-11.457752,128.981125,3.883232,-0.977024,5.674699,60.771534,80.962639,-157.062225
1070,1008562011,-40.691284,-12.870756,126.394485,4.055647,-2.099429,5.239190,95.566666,37.034569,-169.659912
1071,1008578678,-38.275963,-14.750146,124.046944,2.747420,-2.180986,4.066441,112.935944,-0.804044,-177.300339
1072,1008595345,-35.846401,-16.850677,121.864738,1.387585,-1.824889,2.883339,111.744713,-25.375469,-176.572388
1073,1008612012,-33.618885,-18.876339,119.770988,0.578592,-1.037906,1.870094,96.734016,-32.500626,-167.601227
1074,1008628679,-31.735077,-20.623648,117.658409,0.931519,-0.975874,1.652617,71.806885,-24.573782,-157.125198
1075,1008645346,-30.152433,-22.105122,115.532394,1.424308,-1.529534,1.466144,50.095379,-15.893850,-147.706100
1076,1008662013,-28.904926,-23.411043,113.461891,1.098704,-2.091578,1.357503,28.402111,-12.470633,-138.409973
1077,1008678680,-28.024263,-24.456436,111.627388,1.719502,-1.310203,1.410178,9.791526,-7.957021,-118.462708
1078,1008695347,-27.103611,-25.322639,110.022591,3.655000,-1.061779,1.656700,16.313292,-6.424571,-101.625549
1079,1008712014,-25.713861,-26.256752,108.470230,5.305183,-2.649376,1.803450,44.469646,-13.675323,-100.199585
1080,1008728681,-23.825296,-27.486706,106.866661,4.743660,-3.968941,1.218655,71.436554,-31.837503,-109.050247
1081,1008745348,-21.645184,-29.141983,105.427193,2.364078,-3.996653,0.933741,91.461685,-63.029835,-108.738327
1082,1008762015,-19.362001,-31.080427,104.316917,0.741641,-2.868562,0.730498,105.192223,-89.601555,-94.954666
1083,1008778682,-17.259434,-32.996536,103.335770,0.227262,-2.056637,0.292124,96.532089,-94.329277,-83.762604
1084,1008795349,-15.372935,-34.631088,102.452621,0.163472,-1.084913,-0.693780,85.307625,-82.631676,-70.077385
1085,1008812016,-13.601932,-35.926296,101.665115,-0.204042,-1.162898,-1.297557,80.574135,-66.478569,-57.065834
1086,1008828683,-12.072624,-36.897259,101.005470,-1.381330,-1.562524,-1.266751,69.871613,-50.623066,-44.272789
1087,1008845350,-10.953899,-37.564358,100.637123,-2.349882,-1.530713,-1.166945,55.342735,-36.616291,-25.508154
1088,1008862017,-10.383028,-37.878361,100.659393,-2.825614,-0.870577,-1.534182,36.649288,-19.629757,-2.715975
1089,1008878684,-10.371591,-37.728737,100.994812,-2.585518,-0.624712,-1.940464,14.586569,5.040442,17.005846
1090,1008895351,-10.765215,-37.176201,101.594414,-2.288082,-0.921653,-2.520440,-0.186500,26.421177,33.916245
1091,1008912018,-11.500289,-36.378887,102.484596,-2.604677,-1.960677,-2.682065,-10.577905,37.739632,50.990547
1092,1008928685,-12.864124,-35.380505,103.613319,-3.290991,-2.945386,-2.937688,-40.601837,46.023571,66.067207
1093,1008945352,-14.886427,-34.166695,104.925652,-3.599621,-3.172155,-3.741762,-74.907806,54.223785,80.061012
1094,1008962019,-17.456059,-32.788544,106.232468,-3.750116,-3.183445,-4.380976,-109.418205,60.215801,85.670914
1095,1008978686,-20.495684,-31.431110,107.348602,-3.441845,-4.039095,-4.629000,-145.288269,57.571869,79.980232
1096,1008995353,-23.689945,-30.364729,108.170410,-2.399491,-4.215991,-4.895972,-164.882797,42.351994,63.118366
1097,1009012020,-26.784637,-29.807919,108.627907,-1.675496,-3.778529,-5.271711,-170.482559,19.041245,35.598213
1098,1009028687,-29.708923,-29.802458,108.746689,-1.550015,-3.906968,-4.829762,-170.492950,-3.714786,5.471965
1099,1009045354,-32.477821,-30.303951,108.628120,-1.701717,-3.530666,-4.299423,-168.293152,-23.683233,-20.956301
1100,1009062021,-35.037052,-31.220760,108.328903,-1.524201,-3.139498,-3.840938,-161.340012,-38.285000,-43.535919
1101,1009078688,-37.344505,-32.469093,107.889725,-1.465887,-2.959426,-3.280334,-150.964081,-48.371933,-62.441330
1102,1009095355,-39.452549,-33.943306,107.443726,-1.547998,-2.844776,-2.683916,-139.759827,-56.573647,-72.643265
1103,1009112022,-41.436428,-35.480728,107.081627,-1.189704,-2.309057,-2.033974,-130.031433,-59.796688,-73.586586
1104,1009128689,-43.235119,-37.027946,106.729630,-0.378819,-1.961939,-1.266705,-119.046906,-58.344391,-75.276619
1105,1009145356,-44.667553,-38.626114,106.333946,0.135192,-1.925801,-0.555031,-99.140648,-57.225376,-80.221367
1106,1009162023,-45.612370,-40.306511,105.864952,-0.031913,-1.663018,-0.469306,-73.205139,-56.938221,-86.963402
