sep=,
DeviceTag:,DOT5
FirmwareVersion:,3.0.0
AppVersion:,2023.6.0
SyncStatus:,Synced
OutputRate:,60Hz
FilterProfile:,Dynamic
Measurement Mode:,Custom modes - custom mode1
StartTime: ,2026-06-01_12:38:48_734 GMT+2
© Movella Technologies B. V. 2005-2026

PacketCounter,SampleTimeFine,Euler_X,Euler_Y,Euler_Z,FreeAcc_X,FreeAcc_Y,FreeAcc_Z,Gyr_X,Gyr_Y,Gyr_Z
1,130556935,-122.975220,-4.340216,164.982239,1.267509,-0.341979,0.233170,12.391362,-2.162302,-7.021982
2,130573602,-122.785263,-4.427277,165.116684,0.999335,-0.363981,0.785782,12.144073,-5.775655,-8.017268
3,130590269,-122.624313,-4.481204,165.284393,0.811840,-0.199222,1.105556,10.570107,-8.602582,-7.447077
4,130606936,-122.549347,-4.474995,165.455765,0.721727,-0.041739,1.139102,5.432757,-10.741241,-4.509874
5,130623603,-122.534798,-4.386305,165.587524,0.624821,0.161496,1.106050,1.619882,-11.435832,0.923844
6,130640270,-122.482628,-4.220570,165.647354,0.698281,0.376283,0.915652,3.540721,-10.323960,7.116832
7,130656937,-122.351555,-4.006918,165.630234,0.836913,0.578896,0.367310,7.941602,-8.011275,11.994827
8,130673604,-122.195175,-3.759133,165.574585,1.076106,0.919402,-0.273713,9.311170,-7.107853,14.981561
9,130690271,-122.074730,-3.491487,165.507568,1.194143,0.899988,-0.792454,7.132063,-7.134285,16.357410
10,130706938,-122.015198,-3.214665,165.465240,1.171323,0.645885,-1.084639,3.587402,-8.609848,16.071405
11,130723605,-122.025169,-2.949327,165.468582,1.087207,0.317989,-1.208622,-0.418474,-10.561768,14.033962
12,130740272,-122.083649,-2.710559,165.495941,0.879430,-0.089236,-1.178867,-3.247655,-11.011436,11.869174
13,130756939,-122.195457,-2.508928,165.542633,0.673863,-0.511073,-1.125473,-6.403219,-10.734394,9.408751
14,130773606,-122.392212,-2.339598,165.605530,0.481162,-0.671723,-0.852466,-11.466383,-10.546475,7.226497
15,130790273,-122.694839,-2.182668,165.684830,0.242790,-0.743228,-0.579496,-17.786255,-11.037170,6.014198
16,130806940,-123.047005,-2.015934,165.780762,0.042164,-1.065290,-0.176492,-20.737225,-12.179543,5.949593
17,130823607,-123.346207,-1.843324,165.902557,-0.097432,-1.166359,0.010169,-17.522959,-13.712845,5.332451
18,130840274,-123.521378,-1.658965,166.040329,-0.161601,-1.082332,0.126820,-10.074448,-14.935527,5.337443
19,130856941,-123.552795,-1.476575,166.174606,-0.163337,-0.968971,0.103052,-1.481363,-14.746269,5.307104
20,130873608,-123.506294,-1.293367,166.317047,-0.112374,-0.689811,-0.109644,3.180454,-15.128948,5.111076
21,130890275,-123.450264,-1.096785,166.475876,0.052602,-0.401874,-0.369909,3.746482,-16.433369,5.218714
22,130906942,-123.377563,-0.888671,166.640442,0.160387,-0.290846,-0.527878,4.722443,-17.169392,5.574810
23,130923609,-123.235947,-0.697844,166.788406,0.251368,-0.105957,-0.638507,8.812015,-15.735949,5.295335
24,130940276,-123.052597,-0.535671,166.906815,0.292289,0.043164,-0.786856,11.267864,-13.166081,4.947809
25,130956943,-122.913002,-0.408630,167.000580,0.339801,0.153429,-0.918138,8.617495,-10.885764,3.935899
26,130973610,-122.852554,-0.324057,167.076401,0.368047,0.154179,-0.927980,3.852926,-8.485130,2.462707
27,130990277,-122.841484,-0.277069,167.126678,0.366918,0.158583,-0.785937,0.877600,-6.000852,1.384655
28,131006944,-122.845215,-0.268821,167.155060,0.371012,0.145046,-0.673723,-0.015227,-3.677151,0.117287
29,131023611,-122.860817,-0.300702,167.176178,0.390315,0.087785,-0.582530,-0.729539,-2.032189,-1.687237
30,131040278,-122.898399,-0.359987,167.209076,0.380170,0.036128,-0.527593,-2.043612,-1.668770,-3.410895
31,131056945,-122.961792,-0.435176,167.251114,0.326109,-0.092481,-0.384014,-3.587277,-1.574106,-4.487013
32,131073612,-123.041267,-0.519075,167.289810,0.332204,-0.172556,-0.297946,-4.551531,-1.136218,-4.829019
33,131090279,-123.127975,-0.601095,167.318893,0.347833,-0.265534,-0.299670,-4.986306,-0.749761,-4.448132
34,131106946,-123.206093,-0.672604,167.345184,0.377628,-0.197617,-0.259706,-4.474232,-0.960489,-3.834657
35,131123613,-123.303345,-0.727097,167.385513,0.335184,-0.156512,-0.197961,-5.611436,-2.139224,-3.388791
36,131140280,-123.456490,-0.747180,167.459076,0.280712,-0.221411,-0.101863,-8.937645,-4.931010,-2.760973
37,131156947,-123.674126,-0.721953,167.573013,0.143746,-0.353873,-0.031216,-12.775086,-8.552433,-1.916472
38,131173614,-123.926041,-0.651194,167.720093,-0.004905,-0.359979,0.135526,-14.814775,-11.644878,-0.729156
39,131190281,-124.149315,-0.547679,167.874283,-0.091844,-0.398899,0.195496,-13.104624,-13.101064,0.618285
40,131206948,-124.280266,-0.421928,168.023712,-0.070096,-0.354812,0.102442,-7.585463,-13.628886,1.842483
41,131223615,-124.295334,-0.282024,168.168243,-0.018194,-0.258852,-0.024635,-0.653163,-13.930872,2.651153
42,131240282,-124.242279,-0.129446,168.326035,0.022030,-0.070301,-0.233793,3.416180,-14.986670,2.856004
43,131256949,-124.198166,0.027547,168.501358,0.114709,0.010663,-0.424551,2.857810,-15.997618,2.497285
44,131273616,-124.174957,0.178261,168.684692,0.179791,0.064612,-0.490891,1.575445,-16.186268,1.920013
45,131290283,-124.156807,0.315333,168.860641,0.254640,0.131208,-0.544281,1.250074,-15.406178,1.465272
46,131306950,-124.151474,0.432246,169.027222,0.360543,0.137680,-0.580501,0.460421,-14.254155,0.786816
47,131323617,-124.154839,0.516812,169.183899,0.533528,0.135201,-0.641873,-0.069103,-12.652143,-0.471773
48,131340284,-124.145958,0.553700,169.335922,0.789179,0.098885,-0.631142,0.657305,-10.811740,-2.680101
49,131356951,-124.120293,0.528582,169.479446,1.105880,0.000338,-0.554807,1.669699,-8.355620,-5.507052
50,131373618,-124.118797,0.438409,169.616425,1.402721,0.015804,-0.447433,0.231136,-5.747902,-8.457239
51,131390285,-124.225296,0.312318,169.735077,1.383976,-0.012403,-0.270868,-6.227307,-3.696157,-9.679376
52,131406952,-124.538757,0.214402,169.838715,1.212231,-0.051854,-0.011821,-18.625477,-3.842960,-7.762119
53,131423619,-125.050110,0.178922,169.891357,1.050336,-0.188995,0.354174,-30.481075,-3.431832,-2.967766
54,131440286,-125.579056,0.202402,169.853912,1.014383,-0.410061,0.580007,-31.519995,-1.015688,3.048146
55,131456953,-125.912201,0.240119,169.693436,1.044932,-0.602620,0.521252,-19.741314,3.887047,7.653363
56,131473620,-126.029106,0.265406,169.463898,1.151541,-0.444251,0.078226,-6.743917,8.216002,9.919324
57,131490287,-126.087891,0.286877,169.182541,1.170888,-0.269956,-0.325972,-3.236616,10.836390,11.568441
58,131506954,-126.250587,0.308667,168.886200,1.310855,-0.306992,-0.530157,-9.459870,11.610129,12.197274
59,131523621,-126.592377,0.341654,168.604858,1.265717,-0.441815,-0.470367,-20.200232,10.412414,12.245351
60,131540288,-127.086220,0.385643,168.326279,1.155425,-0.558960,-0.253223,-29.312361,9.784839,12.757742
61,131556955,-127.611755,0.425471,168.019028,1.137872,-0.722383,-0.087413,-31.190210,11.231572,13.741794
62,131573622,-128.065018,0.453527,167.655853,1.234141,-0.805643,-0.044047,-26.816364,14.187055,15.346713
63,131590289,-128.449982,0.475248,167.239182,1.356342,-0.684588,-0.081682,-22.683361,16.895168,17.205671
64,131606956,-128.836807,0.495457,166.772415,1.384399,-0.721023,-0.012464,-22.760273,19.211828,19.158297
65,131623623,-129.338425,0.527957,166.316193,1.264827,-0.831364,0.094320,-29.640255,18.075537,19.472822
66,131640290,-130.073715,0.593986,165.873444,1.379957,-0.479010,-0.042720,-43.644390,16.027748,20.778513
67,131656957,-131.034576,0.739258,165.423096,1.387245,-0.528164,0.127134,-57.121052,12.945745,24.932570
68,131673624,-132.050415,0.930472,164.950302,1.255733,-0.692514,0.502252,-60.318794,11.685642,28.137838
69,131690291,-132.964584,1.128920,164.399338,1.089265,-0.838799,0.659485,-54.046547,13.747616,31.280798
70,131706958,-133.668533,1.315275,163.760437,1.151579,-0.795303,0.552859,-41.208790,17.643553,34.597824
71,131723625,-134.163574,1.466213,163.035446,1.300219,-0.693746,0.039910,-28.436691,22.474274,36.852325
72,131740292,-134.510391,1.587598,162.278198,1.510787,-0.450455,-0.376031,-19.387287,24.829807,37.117474
73,131756959,-134.874603,1.682402,161.565002,1.561752,-0.086602,-0.598167,-20.421005,23.843178,34.289768
74,131773626,-135.480026,1.780364,160.931229,1.393445,0.077897,-0.517472,-34.962536,20.064898,31.266058
75,131790293,-136.420486,1.897644,160.359985,1.101342,-0.112936,-0.328602,-55.111824,16.200611,29.675854
76,131806960,-137.548981,2.040405,159.781479,0.804940,-0.469202,-0.003269,-66.297028,14.846405,31.369764
77,131823627,-138.579117,2.168910,159.142227,0.580923,-0.908257,0.236097,-60.180653,17.328896,33.828930
78,131840294,-139.333984,2.239988,158.462540,0.707768,-1.048463,0.023226,-43.505245,20.991344,33.697742
79,131856961,-139.899277,2.255607,157.775055,0.900859,-0.702258,-0.261497,-32.081306,23.441813,32.166088
80,131873628,-140.533951,2.226539,157.113678,1.112700,-0.356686,-0.383513,-36.308899,24.166489,29.518429
81,131890295,-141.331299,2.135222,156.493103,1.287143,-0.382797,-0.360683,-46.203705,25.158781,25.596699
82,131906962,-142.303726,1.969368,155.866058,1.575631,-0.462685,-0.521803,-56.775734,28.524446,23.565365
83,131923629,-143.364960,1.733377,155.152100,1.700650,-1.066096,-0.412209,-62.065731,34.610512,25.723972
84,131940296,-144.330704,1.377362,154.358917,1.730196,-1.459383,-0.416507,-56.427174,42.778584,25.973341
85,131956963,-145.085999,0.886794,153.554642,1.655258,-1.069019,-0.372302,-44.138027,49.368896,22.534843
86,131973630,-145.882660,0.306882,152.810699,1.414681,-0.422472,-0.468743,-47.106945,51.434807,17.220404
87,131990297,-147.044846,-0.294929,152.192642,1.562145,0.117460,-0.468117,-69.497665,48.063179,11.122437
88,132006964,-148.569702,-0.890524,151.642746,1.239192,0.016044,-0.119411,-91.599777,45.298565,9.040446
89,132023631,-150.235825,-1.478778,151.105408,0.784132,-0.714844,0.092110,-100.398376,44.273182,9.944126
90,132040298,-151.674484,-2.092503,150.600998,0.525699,-1.084722,0.101958,-87.025909,44.365520,8.733195
91,132056965,-152.694778,-2.764988,150.182373,0.401047,-1.200596,-0.147185,-62.047241,44.887054,3.535375
92,132073632,-153.558258,-3.478467,149.933044,0.501058,-0.583975,-0.844907,-52.389740,42.428055,-5.859563
93,132090299,-154.795837,-4.180044,149.878036,1.251658,0.079412,-1.523611,-74.241417,36.819221,-15.200467
94,132106966,-156.613159,-4.933019,149.899796,1.527703,0.499731,-1.216840,-108.698853,38.139908,-19.598963
95,132123633,-158.797440,-5.830991,149.860001,1.193288,0.754351,-0.232958,-131.039886,48.255024,-18.059891
96,132140300,-161.029602,-6.917363,149.767456,0.644034,0.539376,0.306211,-134.302414,60.617191,-17.021214
97,132156967,-163.106812,-8.116645,149.759064,0.282392,-0.037742,0.042562,-124.452469,66.120148,-21.493809
98,132173634,-165.044952,-9.304008,149.987625,0.155794,-0.199097,-0.496827,-113.965546,62.295200,-32.388699
99,132190301,-166.902252,-10.406761,150.487518,-0.237571,-0.341538,-0.727528,-106.060066,54.534645,-44.513317
100,132206968,-168.733490,-11.415153,151.265060,-0.418958,-0.251061,-0.563791,-100.800652,46.978260,-57.348148
101,132223635,-170.607681,-12.356801,152.245331,-0.534590,0.038394,-0.231345,-100.097488,42.767033,-66.548096
102,132240302,-172.596481,-13.257071,153.356079,-0.559437,0.557373,-0.004855,-104.315933,41.447048,-71.977562
103,132256969,-174.595612,-14.095955,154.523346,-0.919379,0.369867,-0.285506,-103.152672,39.928764,-73.028305
104,132273636,-176.400558,-14.835967,155.793640,-1.552192,-0.000106,-1.671972,-89.025291,35.967312,-76.844162
105,132290303,-178.014236,-15.411629,157.310562,-1.384087,0.619443,-3.466203,-72.844826,27.710440,-89.223518
106,132306970,-179.469666,-15.893943,159.157593,-0.449372,2.195996,-2.779573,-57.198151,24.076796,-107.104225
107,132323637,179.090576,-16.365150,161.272781,-1.704718,3.132073,-1.698849,-50.900024,26.158781,-121.598907
108,132340304,177.248962,-16.725355,163.664230,-2.834798,3.428488,0.202783,-69.400269,23.471256,-136.559677
109,132356971,175.087051,-16.948189,166.024338,-3.800217,2.665334,1.298951,-88.460091,19.867817,-134.113449
110,132373638,173.148010,-17.063499,168.107437,-4.548771,0.618142,0.269006,-79.554741,16.592537,-117.952942
111,132390305,171.800964,-17.019920,169.792679,-4.598661,-0.419008,-1.522264,-50.966259,7.521220,-95.956184
112,132406972,171.162491,-16.828871,170.952545,-4.276294,-0.428819,-1.840956,-17.836489,-4.032315,-67.309227
113,132423639,171.183548,-16.584970,171.551712,-4.092818,0.050167,-0.772846,11.807629,-11.743360,-36.044159
114,132440306,171.585815,-16.365942,171.677277,-3.961662,0.745854,-0.244529,26.255919,-14.596984,-8.150526
115,132456973,172.020126,-16.162054,171.446793,-3.722119,1.655567,-0.546311,22.128723,-16.709154,12.494294
116,132473640,172.303650,-16.005945,170.946243,-3.206828,2.718861,-0.853401,8.903091,-15.804631,27.533720
117,132490307,172.420029,-15.951070,170.327927,-2.310686,3.501011,-0.691351,-3.014181,-10.601314,35.131859
118,132506974,172.466187,-16.033394,169.788010,-1.569283,3.778884,-0.314322,-5.932986,-1.802449,31.744196
119,132523641,172.475616,-16.184738,169.483444,-1.303112,3.406090,-0.135781,-4.276237,4.094419,18.817308
120,132540308,172.310455,-16.304325,169.479462,-1.274037,2.995311,-0.007991,-9.739962,4.470231,1.400573
121,132556975,172.022369,-16.403854,169.668442,-1.290377,2.416769,0.089604,-13.852463,4.783260,-9.739149
122,132573642,171.702606,-16.514854,169.863754,-0.908703,1.959803,0.478123,-15.620975,5.564834,-9.957346
123,132590309,171.449615,-16.649191,169.963318,-0.506760,1.679899,0.677074,-13.226112,6.190715,-4.257422
124,132606976,171.348328,-16.727953,169.984940,-0.445003,1.252506,0.830198,-5.452855,2.235163,-0.297556
125,132623643,171.395218,-16.639790,169.982132,-0.770849,0.949936,0.430676,3.018387,-7.878622,-0.407255
126,132640310,171.561752,-16.352795,169.964142,-1.309535,0.703279,-0.242549,9.939404,-19.808577,-1.303343
127,132656977,171.842590,-15.967389,169.857285,-1.706205,1.068755,-0.166699,15.320971,-26.399557,2.980335
128,132673644,172.297699,-15.616102,169.604248,-1.796852,1.228050,-0.269712,23.431664,-25.523212,11.786846
129,132690311,172.908981,-15.350014,169.239761,-1.788637,1.221905,-0.071348,31.097435,-21.181883,19.068087
130,132706978,173.477493,-15.083797,168.816483,-1.827573,1.167798,0.123803,27.704571,-21.404995,22.665140
131,132723645,173.873260,-14.746502,168.290390,-2.070415,0.630556,0.036847,15.880989,-26.119400,28.315273
132,132740312,174.187759,-14.322629,167.651062,-1.542163,0.720349,-0.403157,9.505635,-31.804632,34.506470
133,132756979,174.863571,-13.927185,166.903854,-1.158397,0.425486,-0.875793,29.868164,-30.417953,41.235901
134,132773646,175.939011,-13.575930,166.178085,-1.084543,0.799662,-0.793395,54.434597,-27.053448,40.697968
135,132790313,176.924850,-13.134391,165.555450,-0.912600,1.452325,-0.114332,50.782337,-31.359922,34.849258
136,132806980,177.447556,-12.566717,164.987839,-1.016950,1.494323,0.436083,24.051220,-38.308907,31.714878
137,132823647,177.532120,-11.889505,164.372696,-1.320027,0.792087,0.719747,-2.476520,-44.835590,34.480930
138,132840314,177.544876,-11.127790,163.717194,-0.876091,0.460848,0.223944,-6.815044,-49.980839,36.763737
139,132856981,177.859146,-10.345917,162.983139,-0.608706,0.484085,-0.240972,10.916746,-51.276882,41.576641
140,132873648,178.662109,-9.578100,162.169861,-1.044457,0.468041,-0.567587,40.002094,-50.175232,46.858833
141,132890315,179.824966,-8.765873,161.364197,-1.137211,1.087185,-0.423430,62.327171,-52.031086,47.299786
142,132906982,-178.924423,-7.916319,160.599091,-0.942162,1.484501,-0.221869,68.641022,-53.289577,46.043659
143,132923649,-177.743088,-7.098547,159.879578,-0.719742,1.427708,-0.132350,65.505852,-50.478870,44.432926
144,132940316,-176.661072,-6.351120,159.181091,-0.872276,1.428456,-0.322066,60.279953,-45.440708,43.986946
145,132956983,-175.690109,-5.585813,158.465469,-1.138487,1.655961,-1.102262,54.060505,-45.650715,45.898876
146,132973650,-174.896973,-4.697837,157.710388,-0.950564,1.436147,-1.680016,43.798126,-52.082348,49.570366
147,132990317,-174.194077,-3.790724,156.919968,-1.053933,1.142979,-1.090795,38.935726,-52.373699,52.480785
148,133006984,-173.537598,-2.981082,156.138977,-1.097993,1.458724,-0.799092,36.891899,-45.993996,51.926804
149,133023651,-172.923569,-2.264562,155.360123,-0.981660,1.897755,-0.880715,34.975632,-39.884674,51.653576
150,133040318,-172.362381,-1.532397,154.615540,-1.219363,2.017620,-1.287874,32.466736,-40.550175,50.137920
151,133056985,-171.833832,-0.699662,153.949112,-0.792425,1.278805,-1.517806,31.209433,-46.696938,46.695740
152,133073652,-171.273956,0.158514,153.402527,-0.253376,0.941165,-1.177338,33.714817,-48.821636,40.231880
153,133090319,-170.662399,0.959222,152.949799,-0.620737,0.951322,-0.913025,37.235397,-45.890282,34.599655
154,133106986,-169.975525,1.690587,152.509277,-1.326315,1.087246,-0.684439,42.101040,-41.523010,33.659714
155,133123653,-169.187927,2.416166,152.059235,-1.988585,1.330049,-0.740895,48.500237,-40.650818,34.644497
156,133140320,-168.381454,3.222425,151.639557,-1.539239,1.118972,-0.826073,49.903667,-45.279068,34.310635
157,133156987,-167.579361,4.065828,151.241501,-0.398245,0.810794,-0.702238,49.919483,-47.253292,34.083515
158,133173654,-166.830856,4.900594,150.867310,0.157067,0.837010,-0.705433,46.941769,-46.609043,33.152306
159,133190321,-166.114731,5.747171,150.514160,0.023113,0.964099,-1.002849,45.210083,-47.174801,32.630188
160,133206988,-165.399048,6.676188,150.231186,-0.171886,1.028873,-1.357838,45.056049,-52.599072,30.311817
161,133223655,-164.670197,7.716356,150.038986,-0.079834,0.489910,-1.435012,45.454086,-60.065189,27.404284
162,133240322,-163.934814,8.764997,149.955475,0.276752,0.161453,-1.412680,45.119419,-61.956257,22.032351
163,133256989,-163.151596,9.727375,149.949509,0.597240,-0.064482,-1.508000,47.329674,-58.002686,16.935844
164,133273656,-162.280685,10.578321,150.000946,0.561380,0.386361,-1.696254,51.989059,-52.378414,12.506934
165,133290323,-161.291702,11.382908,150.101959,0.226460,0.740048,-1.279006,58.464699,-50.440617,9.676179
166,133306990,-160.223389,12.208462,150.330643,0.417292,0.060846,-1.538798,61.576363,-53.915382,3.885750
167,133323657,-159.184296,13.082025,150.768570,1.173694,-0.415297,-1.663669,56.874847,-60.774178,-5.623406
168,133340324,-158.282288,13.973878,151.387253,1.555382,-0.127478,-1.470021,45.721325,-65.674965,-13.979992
169,133356991,-157.442139,14.845534,152.043304,0.605472,0.054785,-0.855160,40.898575,-65.525291,-15.365124
170,133373658,-156.498123,15.671269,152.739944,0.197189,-0.119333,-0.573784,45.927181,-64.085091,-17.490253
171,133390325,-155.305374,16.424006,153.520508,0.644532,-0.483724,-0.756152,58.903885,-62.316460,-22.404934
172,133406992,-153.886414,17.115875,154.428635,1.167239,-0.481457,-0.966390,69.701965,-62.588898,-29.077290
173,133423659,-152.430161,17.796522,155.422440,1.176348,-0.649690,-0.808661,69.773460,-64.830406,-32.076038
174,133440326,-151.054123,18.475981,156.482880,0.927761,-1.049243,-0.712210,63.045235,-67.237885,-33.718636
175,133456993,-149.694199,19.099691,157.603638,0.668276,-1.258315,-0.602131,60.225063,-66.699310,-36.601452
176,133473660,-148.289658,19.627321,158.809052,0.689698,-1.089426,-0.876855,60.578083,-64.981499,-41.938866
177,133490327,-146.846802,20.084332,160.123352,0.838031,-0.955444,-1.035566,60.071308,-65.613503,-47.659420
178,133506994,-145.444977,20.473288,161.489670,1.409237,-1.365056,-0.694004,55.980541,-64.908012,-50.624489
179,133523661,-144.110382,20.755747,162.829575,1.150363,-1.867890,-0.416417,52.055576,-59.927010,-51.458866
180,133540328,-142.918442,20.952061,164.135452,1.170641,-1.990640,-0.289646,43.907906,-55.688744,-51.630470
181,133556995,-141.910721,21.085413,165.362793,1.136219,-1.588809,-0.116322,34.333923,-50.944027,-49.357376
182,133573662,-141.072662,21.183012,166.468246,0.866866,-1.127072,0.020077,26.650305,-45.773636,-44.531506
183,133590329,-140.304016,21.261135,167.452332,0.999140,-1.070912,-0.057991,25.025646,-41.167442,-39.384991
184,133606996,-139.451447,21.317389,168.375641,1.799009,-1.317971,-0.181163,31.320253,-38.510212,-37.065880
185,133623663,-138.497864,21.334871,169.292053,2.013555,-1.465724,-0.312943,37.496006,-37.073151,-37.723927
186,133640330,-137.647980,21.298098,170.237366,1.988409,-0.783980,-0.372447,30.651478,-36.321941,-40.561008
187,133656997,-136.985672,21.193439,171.103897,1.742857,-0.236077,-0.182580,21.177139,-30.887011,-39.653721
188,133673664,-136.465836,21.039330,171.767151,1.453471,-0.380526,0.034009,17.130648,-21.364870,-33.144825
189,133690331,-135.963287,20.850645,172.222641,1.521264,-0.576470,0.300932,20.660746,-12.135618,-26.040798
190,133706998,-135.478912,20.653849,172.530396,2.007827,-0.553075,0.093150,22.797155,-6.245973,-20.388971
191,133723665,-135.035492,20.455826,172.717743,2.246190,-0.654229,-0.102365,22.933989,-1.610800,-15.624084
192,133740332,-134.613434,20.249517,172.801071,2.034803,-0.491276,-0.272608,23.861332,2.763790,-11.871261
193,133756999,-134.223877,20.029383,172.810303,1.728100,-0.319075,-0.207901,23.457745,6.236982,-9.589699
194,133773666,-133.902069,19.810413,172.788620,1.567061,-0.117193,-0.035507,20.025972,7.383471,-8.383462
195,133790333,-133.691635,19.625534,172.775146,1.637031,-0.117572,0.168231,13.175178,5.597538,-7.275805
196,133807000,-133.582840,19.497509,172.778366,1.829090,-0.340082,0.208614,6.738633,2.542490,-5.483104
197,133823667,-133.476578,19.427607,172.837418,1.665634,-0.467916,0.404399,5.469612,-2.157140,-5.141558
198,133840334,-133.261932,19.383667,172.973053,1.346491,-0.297131,0.521696,10.449983,-6.391026,-6.989300
199,133857001,-132.918930,19.354326,173.187073,1.161163,0.195472,0.557546,16.594322,-10.263486,-9.367143
200,133873668,-132.502716,19.344051,173.475449,1.056814,0.327613,0.433333,19.513847,-14.195606,-11.333764
201,133890335,-132.054230,19.361486,173.860657,1.213337,0.181155,0.236201,19.525501,-19.453344,-13.703991
202,133907002,-131.582565,19.406212,174.320862,1.106853,-0.037131,0.119604,19.410952,-23.817537,-15.179211
203,133923669,-131.053024,19.464054,174.798111,0.831798,0.035275,0.265388,22.517609,-25.185562,-15.034751
204,133940336,-130.477905,19.531067,175.255280,0.719682,0.021093,0.259721,25.627628,-24.820612,-13.651229
205,133957003,-129.900925,19.620556,175.698044,0.943756,0.022635,0.146299,25.992941,-25.198439,-11.866718
206,133973670,-129.353165,19.732151,176.141983,1.040528,-0.053538,-0.001547,24.169907,-26.200676,-10.657521
207,133990337,-128.805664,19.830225,176.572952,1.018669,-0.080767,-0.037229,24.373138,-25.206448,-10.590209
208,134007004,-128.205261,19.886610,176.941635,0.960875,0.280157,-0.003497,28.784323,-20.995752,-10.127732
209,134023671,-127.540558,19.899462,177.225067,0.915366,0.467120,0.094980,34.367424,-15.705038,-9.032930
210,134040338,-126.858536,19.903896,177.463928,1.031764,0.463722,0.176714,36.317284,-13.502295,-7.760486
211,134057005,-126.242500,19.937315,177.753769,1.349549,0.300915,0.079528,31.312231,-16.935593,-7.953203
212,134073672,-125.750351,20.037699,178.159454,1.441087,0.024471,0.179367,21.483091,-24.653616,-8.401204
213,134090339,-125.322891,20.177149,178.656204,1.106021,-0.428528,0.442239,15.677276,-30.241930,-9.290240
214,134107006,-124.886566,20.327642,179.164932,0.792428,-0.258281,0.486858,15.886830,-31.221727,-8.914668
215,134123673,-124.423729,20.513489,179.581818,0.562505,-0.333224,0.504071,19.317465,-28.224604,-3.992434
216,134140340,-123.969437,20.774187,179.872787,0.727955,-0.661750,0.376239,21.372862,-24.906908,3.917176
217,134157007,-123.542999,21.113485,-179.947556,0.956513,-1.051801,0.378733,22.001986,-22.285538,11.491827
218,134173674,-123.174606,21.493786,-179.860703,1.014298,-1.445283,0.314222,20.478102,-19.201029,16.550560
219,134190341,-122.906029,21.890621,-179.859650,0.888889,-1.287917,0.081199,16.357378,-15.628521,20.086983
220,134207008,-122.735580,22.321600,179.990662,0.696649,-0.938244,0.108537,13.869369,-9.617960,26.399477
221,134223675,-122.544220,22.762276,179.620407,0.782524,-1.178393,0.278039,20.256136,0.418994,33.487366
222,134240342,-122.199982,23.185740,179.098099,0.957634,-1.285618,0.115242,33.145557,8.169968,37.063503
223,134257009,-121.846260,23.604221,178.526398,0.802694,-1.045177,-0.001026,35.099316,10.783558,38.136368
224,134273676,-121.696777,24.028143,177.950058,0.716267,-0.449142,0.156898,23.188625,10.909549,38.435120
225,134290343,-121.764008,24.490591,177.343201,0.363615,-0.260149,0.756231,11.180217,11.050207,41.210007
226,134307010,-121.914398,25.017563,176.738754,0.112140,-0.393267,0.981046,6.419031,8.706760,44.386627
227,134323677,-122.038246,25.639120,176.160751,-0.034750,-0.784920,0.813754,7.661624,4.251392,48.387840
228,134340344,-122.008804,26.336519,175.572540,-0.204938,-0.709566,0.386654,17.484909,2.114140,52.450294
229,134357011,-121.866013,27.082054,174.957108,-0.487515,0.325750,-0.204022,25.417341,1.739848,55.563725
230,134373678,-121.802925,27.870951,174.328018,-0.327028,0.861210,-0.717890,21.455544,0.890380,58.032909
231,134390345,-121.875153,28.668617,173.752655,0.054332,0.898664,-1.021549,12.274411,-2.012542,56.852589
232,134407012,-122.005508,29.419790,173.274155,0.220810,0.666601,-1.161822,6.373953,-5.141479,51.678677
233,134423679,-122.098747,30.079672,172.900940,0.105962,0.379994,-1.450253,5.776915,-7.132508,44.027588
234,134440346,-122.133644,30.635359,172.598953,-0.271455,0.531106,-1.744334,7.324623,-7.080489,36.705654
235,134457013,-122.169052,31.096964,172.328506,-0.540211,0.817475,-1.948982,6.463573,-5.545643,31.015610
236,134473680,-122.265457,31.479872,172.077789,-0.423018,0.837313,-2.016162,2.293412,-3.973014,26.446928
237,134490347,-122.407356,31.780399,171.860718,-0.241813,0.436785,-1.996041,-1.417921,-2.878872,21.324072
238,134507014,-122.473969,31.982914,171.710709,-0.159188,0.196429,-1.899365,1.024848,-2.670036,14.511314
239,134523681,-122.426224,32.065483,171.619308,-0.172306,0.152363,-1.812295,6.039456,-1.340838,6.832720
240,134540348,-122.340599,32.035103,171.593201,-0.028071,0.212828,-1.795074,6.233447,-0.508771,-0.672269
241,134557015,-122.277206,31.919147,171.617477,0.222493,0.241843,-1.655407,3.300933,0.069468,-6.381789
242,134573682,-122.247765,31.742065,171.686386,0.313998,0.144187,-1.420907,-0.146274,0.096554,-10.701746
243,134590349,-122.237495,31.518993,171.804291,0.482744,0.039147,-1.185153,-2.826261,-0.560163,-14.377147
244,134607016,-122.217674,31.254601,171.965561,0.652741,0.057203,-0.828327,-3.581364,-1.133940,-17.667944
245,134623683,-122.119560,30.962437,172.154129,0.979033,-0.129141,-0.310784,0.308102,-1.470056,-19.840557
246,134640350,-121.913155,30.648626,172.376785,1.708041,-0.619760,0.095635,5.811948,-2.349880,-21.892303
247,134657017,-121.635002,30.324373,172.635193,2.213735,-1.094873,0.369166,9.091166,-3.713568,-23.422304
248,134673684,-121.369225,29.996542,172.925980,2.303432,-1.192925,0.531363,7.444802,-5.181910,-24.506493
249,134690351,-121.213089,29.682205,173.210571,2.135639,-0.962803,0.816258,1.134869,-5.456579,-23.666683
250,134707018,-121.239441,29.408346,173.432190,2.141604,-0.765522,1.146470,-7.875880,-3.963098,-19.907694
251,134723685,-121.407669,29.204428,173.558258,2.185495,-0.647256,1.562963,-13.532782,-1.857487,-13.740461
252,134740352,-121.664101,29.077599,173.547638,2.410401,-0.731640,1.709111,-14.813398,1.873269,-6.060201
253,134757019,-121.971565,29.018637,173.370819,2.607388,-0.811411,1.773952,-13.037924,7.167367,2.013371
254,134773686,-122.397713,29.003292,172.990906,2.898854,-0.556315,1.525111,-14.254365,14.786093,9.964557
255,134790353,-123.036324,29.023273,172.375473,3.251653,-0.330502,1.347696,-20.145224,23.952663,18.584244
256,134807020,-123.946609,29.057026,171.538498,3.865068,-0.307293,1.117576,-29.978752,32.928444,26.030025
257,134823687,-125.139679,29.075302,170.516724,4.140150,-0.130015,1.082054,-41.536922,40.955341,31.397202
258,134840354,-126.650955,29.068432,169.357635,3.889211,-0.068205,1.120626,-56.611786,46.926285,35.409000
259,134857021,-128.468353,29.018612,168.083023,4.008225,0.090964,1.324409,-71.640717,52.273605,38.485718
260,134873688,-130.423004,28.886686,166.620132,4.009029,-0.365647,1.687557,-74.507988,61.796104,42.778160
261,134890355,-132.369934,28.646610,165.097870,4.447005,-0.896317,1.514657,-72.572762,67.050598,42.229198
262,134907022,-134.354111,28.364117,163.448593,4.624946,-1.676343,1.111684,-71.533081,72.334038,47.471241
263,134923689,-136.305908,27.980415,161.811249,4.309217,-1.942387,0.947539,-70.430504,74.736755,45.486103
264,134940356,-138.231781,27.504492,160.202423,3.400277,-2.119868,0.611601,-70.318405,76.440208,43.460430
265,134957023,-140.207336,26.913431,158.635452,3.079149,-2.618014,0.357162,-75.239204,78.969734,40.233543
266,134973690,-142.207916,26.152914,157.124527,2.925412,-2.915491,-0.351369,-79.230309,83.892372,34.710911
267,134990357,-144.188431,25.180422,155.692566,2.905085,-2.811042,-1.248339,-81.306755,90.633636,27.138216
268,135007024,-146.156525,24.002525,154.306946,2.565497,-2.624580,-2.248124,-83.174713,98.722046,21.783319
269,135023691,-148.069321,22.614548,152.932510,1.999146,-2.708953,-3.004440,-81.820633,108.596382,18.469475
270,135040358,-149.924469,21.016632,151.600281,1.383333,-2.671509,-3.502715,-81.282677,117.953804,14.321959
271,135057025,-151.708054,19.204744,150.343613,1.066259,-2.487814,-3.464656,-80.765335,126.997108,8.910123
272,135073692,-153.434418,17.175911,149.194611,1.077061,-2.172681,-3.097947,-81.734146,135.781784,2.168826
273,135090359,-155.144791,14.951064,148.240570,1.034441,-1.574948,-2.635904,-86.452751,141.712997,-8.232571
274,135107026,-156.929199,12.600002,147.542999,0.873210,-0.934088,-2.731433,-96.767136,142.997620,-20.024294
275,135123693,-158.960449,10.235327,147.060425,0.120396,-0.757948,-2.907831,-115.807632,139.746704,-26.840990
276,135140360,-161.159378,7.878196,146.775192,-0.612488,-0.606640,-2.577326,-128.905106,136.309875,-32.204922
277,135157027,-163.412079,5.516589,146.692078,-0.961613,-0.172532,-2.173195,-134.244003,134.084244,-38.246243
278,135173694,-165.678131,3.134808,146.842789,-0.933858,0.274908,-1.766495,-136.310822,132.937805,-46.608658
279,135190361,-168.072083,0.787123,147.274292,-1.019019,0.717509,-2.054791,-144.189453,128.908234,-57.012383
280,135207028,-170.697372,-1.457525,147.977036,-1.305468,1.209253,-2.229826,-156.938644,122.208344,-66.069984
281,135223695,-173.513077,-3.565288,148.899384,-2.266144,1.472788,-2.032574,-166.186996,115.272301,-71.943336
282,135240362,-176.412582,-5.479061,150.026428,-3.255089,1.581675,-1.725146,-168.313080,106.057434,-77.026085
283,135257029,-179.319046,-7.136656,151.363174,-3.826191,1.464128,-1.686370,-165.257767,94.002213,-83.149200
284,135273696,177.885712,-8.557596,152.882874,-3.690216,1.682379,-1.570059,-154.957321,83.952904,-89.024162
285,135290363,175.184448,-9.783106,154.493454,-3.917956,2.817660,-1.033106,-146.372665,76.724579,-90.541267
286,135307030,172.675110,-10.887371,155.998520,-4.634007,3.232854,0.523337,-134.064713,72.829971,-81.085617
287,135323697,170.378082,-11.869477,157.292053,-5.076004,2.962110,0.789164,-122.221428,67.032906,-66.315430
288,135340364,168.387817,-12.635494,158.408966,-4.447921,2.332327,-0.133495,-104.911789,54.763702,-55.636871
289,135357031,166.995300,-13.206247,159.418564,-4.010499,1.916334,-0.847911,-69.728699,43.556107,-50.120193
290,135373698,166.189789,-13.602765,160.337845,-4.362453,2.168808,-0.692569,-35.270290,33.084541,-46.410378
291,135390365,165.513199,-13.828607,161.129883,-4.298873,2.917579,0.373876,-29.055164,21.915453,-41.192001
292,135407032,164.844864,-14.007361,161.707718,-4.077215,3.300383,0.408248,-31.486643,16.455635,-29.528038
293,135423699,164.458511,-14.234749,162.101730,-3.576966,3.135464,-0.289717,-17.136553,16.693470,-18.241541
294,135440366,164.555542,-14.507027,162.430984,-3.422369,3.094969,-0.499599,11.003772,18.312731,-13.818249
295,135457033,164.902893,-14.748695,162.776154,-2.912970,3.430519,0.673872,26.354660,16.714796,-15.257050
296,135473700,165.253799,-14.935751,163.091660,-2.749347,3.520178,0.810493,26.189817,12.997871,-14.537720
297,135490367,165.567932,-15.027350,163.267975,-2.827115,3.103427,0.476108,21.876522,5.324730,-8.253389
298,135507034,165.884155,-15.057518,163.244370,-2.772101,3.032170,0.731227,18.904390,-1.157708,2.021389
299,135523701,166.260208,-15.118047,162.981735,-2.757053,3.402261,1.067837,18.764576,-2.720997,15.888533
300,135540368,166.782578,-15.182336,162.465912,-2.827913,3.572216,1.107029,23.563498,-5.802754,30.193199
301,135557035,167.412521,-15.178413,161.771713,-3.039672,3.317943,1.194497,27.203398,-11.807056,39.378048
302,135573702,168.018784,-15.057209,160.947052,-3.332120,3.143779,1.863418,23.792459,-19.879749,45.367531
303,135590369,168.473206,-14.810908,159.927933,-3.889924,2.774027,2.428212,11.830744,-29.124651,55.072365
304,135607036,168.855331,-14.405817,158.684418,-3.996373,2.710407,2.586424,4.436477,-40.654858,66.248924
305,135623703,169.419876,-13.821218,157.215683,-3.800405,2.578133,2.217067,12.713427,-53.196815,77.558327
306,135640370,170.435684,-13.041367,155.593094,-3.759539,2.153243,1.538665,38.660713,-65.285706,85.280838
307,135657037,171.916245,-12.035261,153.970459,-3.474662,2.055671,0.787457,68.021622,-76.896973,84.880234
308,135673704,173.726089,-10.811899,152.429764,-3.259752,2.205751,0.694994,90.600716,-86.828201,80.954620
309,135690371,175.687897,-9.411492,151.011276,-3.338613,2.524569,0.682765,103.082718,-94.085548,75.907394
310,135707038,177.796112,-7.865404,149.740616,-3.255910,2.479573,0.624516,115.357468,-99.602791,70.209190
311,135723705,-179.885971,-6.190129,148.609558,-2.904102,1.969572,-0.073968,131.086990,-104.444511,65.735931
312,135740372,-177.417084,-4.368447,147.615341,-2.518792,1.562096,-0.758268,142.954788,-110.600624,62.187847
313,135757039,-174.954086,-2.383570,146.761276,-2.197049,1.408518,-1.121293,145.069214,-118.163246,59.194046
314,135773706,-172.695618,-0.240579,146.042725,-1.865307,1.266481,-1.409879,134.825302,-125.941597,56.915001
315,135790373,-170.762939,1.997619,145.445648,-1.384526,1.177609,-1.310197,116.815727,-130.491959,54.996372
316,135807040,-169.104141,4.205832,144.954514,-1.151300,0.934054,-1.650752,101.430168,-128.064255,52.357800
317,135823707,-167.539734,6.313321,144.573563,-0.732521,0.646573,-2.372767,96.267342,-121.982193,48.116566
318,135840374,-165.913086,8.296395,144.344635,-0.100771,0.745790,-2.656375,99.652740,-115.437920,40.811920
319,135857041,-164.153732,10.230394,144.290848,0.144347,0.852383,-2.659990,106.387863,-114.044075,33.278973
320,135873708,-162.427124,12.163897,144.431747,-0.059704,0.074139,-2.734493,102.264236,-116.259918,25.647932
321,135890375,-160.732101,14.104672,144.827133,-0.320104,-1.005920,-2.662261,96.616875,-120.544250,15.109681
322,135907042,-158.983978,15.981058,145.515259,0.118940,-1.695459,-2.971466,94.476517,-122.188232,1.571119
323,135923709,-157.196075,17.763594,146.370499,0.276229,-1.540143,-2.870085,92.683861,-120.307899,-5.414223
324,135940376,-155.439194,19.399984,147.283920,0.691378,-1.263012,-2.556178,88.249359,-113.534195,-7.900839
325,135957043,-153.748520,20.900648,148.195663,0.792455,-1.459820,-2.319623,82.897385,-106.114807,-7.524302
326,135973710,-152.035522,22.232187,149.186142,0.683949,-2.044944,-2.158081,81.236641,-99.045036,-12.557371
327,135990377,-150.306442,23.417051,150.404938,1.068621,-2.544731,-2.765158,75.677132,-97.519417,-24.531319
328,136007044,-148.694046,24.478979,151.838120,1.820627,-2.979318,-3.024901,62.137653,-97.514641,-35.139194
329,136023711,-147.246124,25.383739,153.347305,1.880383,-1.991257,-2.280855,49.001839,-92.292503,-40.587994
330,136040378,-145.967484,26.085793,154.777924,1.705596,-1.430673,-1.627469,39.746712,-80.441132,-41.140862
331,136057045,-144.797745,26.578930,156.122421,1.815090,-1.609337,-1.458461,34.700016,-68.131142,-42.459621
332,136073712,-143.580353,26.890741,157.474457,2.080205,-2.250778,-1.498841,36.848705,-60.268646,-47.579697
333,136090379,-142.197342,27.029613,158.893372,2.424150,-2.915010,-1.362392,44.681915,-55.125320,-55.259075
334,136107046,-140.759018,26.989130,160.358124,3.082549,-2.346858,-0.752288,46.682648,-49.553745,-62.546864
335,136123713,-139.568954,26.798048,161.720444,3.312212,-1.513264,-0.163795,34.722565,-40.572433,-63.099419
336,136140380,-138.731262,26.497829,162.895813,3.086552,-0.747511,0.554090,18.925705,-30.272816,-59.247829
337,136157047,-138.007416,26.111794,163.875015,2.788701,-0.620099,1.242270,17.696524,-20.337631,-54.541325
338,136173714,-137.197418,25.666555,164.749527,3.575400,-0.482105,1.719254,25.987143,-14.757396,-52.667637
339,136190381,-136.309586,25.195662,165.607468,4.341488,-0.129533,1.883283,31.464872,-13.921533,-53.021336
340,136207048,-135.525223,24.750338,166.509338,4.798781,0.122431,1.788036,24.516321,-17.574810,-53.633141
341,136223715,-134.977692,24.419352,167.463547,4.592851,0.361805,2.180960,9.339376,-25.179266,-50.772465
342,136240382,-134.613663,24.207632,168.409683,3.926052,0.555795,2.694425,-1.221764,-30.385395,-45.291321
343,136257049,-134.226913,24.080999,169.252563,3.349321,0.527421,2.861463,2.828376,-30.262421,-37.564045
344,136273716,-133.745407,24.028395,169.958328,2.983423,0.253148,2.437051,11.942616,-28.245193,-28.967796
345,136290383,-133.263123,24.069664,170.542389,2.547637,-0.178715,1.903500,14.968688,-27.525677,-20.083998
346,136307050,-132.871445,24.184204,171.043900,2.258276,-0.826393,1.208998,11.516186,-27.359550,-13.584643
347,136323717,-132.582779,24.352573,171.477554,1.824723,-0.872279,0.732253,6.938827,-26.877161,-8.528786
348,136340384,-132.405167,24.542410,171.801041,1.360524,-0.439685,0.494917,2.935125,-23.317719,-3.398018
349,136357051,-132.323196,24.723457,171.971161,1.143352,-0.212283,0.300018,0.973405,-16.769520,1.909768
350,136373718,-132.294418,24.863380,172.007828,1.289977,-0.287348,-0.138422,1.112955,-9.721164,4.997059
351,136390385,-132.249451,24.954027,171.989883,1.532644,-0.559541,-0.758773,3.460436,-5.523687,4.813518
352,136407052,-132.152420,25.000698,171.982254,1.594111,-0.712972,-1.289337,6.324820,-4.159593,2.483555
353,136423719,-132.046417,25.015482,171.997665,1.227372,-0.365957,-1.457416,6.274503,-3.800272,0.223272
354,136440386,-132.001846,24.999693,172.018127,0.977640,0.045837,-1.423830,2.461003,-2.773651,-1.323613
355,136457053,-132.038437,24.974133,172.022003,0.897753,-0.079823,-1.434534,-1.988531,-1.710749,-1.158296
356,136473720,-132.092575,24.964676,172.037140,0.839828,-0.563322,-1.279306,-3.324298,-2.809905,-0.850649
357,136490387,-132.028412,24.936731,172.088608,0.610712,-0.980326,-1.061197,2.851661,-3.531800,-3.000759
358,136507054,-131.810272,24.865219,172.170792,0.482237,-0.821526,-0.954118,11.314885,-3.035837,-6.059354
359,136523721,-131.537827,24.749708,172.272476,0.361323,-0.556274,-0.866347,14.087120,-2.101908,-8.739062
360,136540388,-131.335648,24.618584,172.384171,0.497575,-0.294339,-0.921939,9.633487,-1.926255,-9.805829
361,136557055,-131.191559,24.488983,172.470291,0.417695,-0.280853,-0.671613,6.798093,-0.975562,-8.824999
362,136573722,-130.965439,24.325497,172.524399,0.364704,-0.339618,-0.505687,12.523833,1.647276,-9.217122
363,136590389,-130.611450,24.115335,172.568451,0.441027,-0.174756,-0.488073,20.451288,3.843226,-11.003816
364,136607056,-130.186142,23.857107,172.602142,0.480379,0.034675,-0.398289,24.993999,6.065892,-12.878883
365,136623723,-129.838135,23.569580,172.638138,0.607822,0.147452,-0.217064,20.307774,7.007901,-14.367529
366,136640390,-129.638031,23.278498,172.700150,0.801821,0.079630,-0.037705,10.824153,5.970936,-15.497242
367,136657057,-129.506424,22.976534,172.767075,0.881592,-0.106468,0.070295,6.617080,6.129478,-16.203304
368,136673724,-129.303467,22.653831,172.807449,0.771915,-0.335129,0.155807,11.535588,7.997969,-16.265911
369,136690391,-129.018326,22.314907,172.823059,0.604621,-0.173271,0.259459,17.048447,9.605930,-16.201746
370,136707058,-128.783920,21.999376,172.838348,0.575180,-0.092519,0.140320,14.014787,8.661558,-15.157532
371,136723725,-128.681961,21.724148,172.836884,0.721208,-0.119841,0.090870,6.446767,7.833158,-12.721634
372,136740392,-128.649353,21.484695,172.773529,0.760256,-0.145964,0.053961,3.654339,9.174494,-8.899970
373,136757059,-128.623245,21.268137,172.628220,0.920709,-0.338388,-0.003474,5.039731,11.891952,-4.974732
374,136773726,-128.584930,21.064363,172.435242,1.056511,-0.462771,-0.170893,6.777158,13.505609,-2.711401
375,136790393,-128.569656,20.868090,172.221481,1.079874,-0.472420,-0.360538,5.802478,14.149100,-1.633054
376,136807060,-128.649811,20.686985,172.000656,1.048234,-0.317880,-0.458731,0.186160,13.904740,-0.657453
377,136823727,-128.869217,20.539137,171.776398,0.945179,-0.228232,-0.467908,-8.129834,12.821132,1.069888
378,136840394,-129.170761,20.437296,171.544846,0.708370,-0.426453,-0.235103,-12.932878,11.405519,3.547023
379,136857061,-129.435364,20.380272,171.337723,0.606383,-0.665951,-0.073061,-11.246927,8.630276,4.829861
380,136873728,-129.589737,20.370770,171.177460,0.405024,-0.707934,-0.012880,-5.618864,4.768708,5.395976
381,136890395,-129.638290,20.398104,171.061432,0.333659,-0.617062,-0.158931,-0.194349,1.434177,5.524679
382,136907062,-129.631729,20.471115,170.976883,0.261440,-0.445864,-0.332003,2.457122,-1.679591,6.504455
383,136923729,-129.659271,20.588970,170.927643,0.188532,-0.201113,-0.430382,-0.325986,-4.928998,7.308437
384,136940396,-129.753601,20.737827,170.907181,0.193887,-0.090323,-0.454669,-4.933482,-7.366791,7.705641
385,136957063,-129.858124,20.904100,170.893524,0.176797,-0.166381,-0.379164,-5.690107,-8.343047,8.253960
386,136973730,-129.857254,21.055912,170.864731,0.271306,-0.294677,-0.369513,0.960662,-7.145189,8.125010
387,136990397,-129.737350,21.168877,170.817001,0.547671,-0.250664,-0.422336,8.515491,-4.830328,7.017838
388,137007064,-129.610352,21.231718,170.758667,0.818267,0.060749,-0.480586,9.175018,-2.439572,5.083362
389,137023731,-129.585388,21.230917,170.688644,1.002432,0.188691,-0.342093,3.309193,0.504231,2.556038
390,137040398,-129.683853,21.152559,170.615356,1.214809,0.162709,-0.044032,-4.028275,3.613920,-0.910199
391,137057065,-129.825195,20.994776,170.533325,1.107155,-0.180307,0.371415,-6.419134,7.043822,-4.249174
392,137073732,-129.930969,20.762880,170.420837,1.127331,-0.454634,0.578402,-3.647751,11.224294,-6.540489
393,137090399,-130.024567,20.502308,170.244751,1.376863,-0.410863,0.679340,-1.602934,15.086490,-5.538380
394,137107066,-130.149521,20.257532,169.943497,1.498380,-0.005810,0.918249,-0.910302,19.887783,-0.236713
395,137123733,-130.373291,20.055265,169.500870,1.758029,0.375988,0.966736,-3.980043,24.337620,6.937989
396,137140400,-130.828278,19.919676,168.961029,2.445719,0.413730,0.641111,-15.931777,25.876019,13.714419
397,137157067,-131.565430,19.858841,168.368454,2.861273,0.106806,0.541943,-31.831264,25.039028,19.357222
398,137173734,-132.506042,19.832209,167.729340,3.113337,-0.056387,0.480763,-43.113655,25.338116,23.038736
399,137190401,-133.594315,19.807251,166.981689,3.080671,-0.067272,0.514495,-49.778378,29.348093,27.785759
400,137207068,-134.786713,19.777891,166.085434,2.580293,-0.062461,0.964649,-53.021793,35.003231,34.074627
401,137223735,-136.127838,19.767307,165.067841,1.885777,-0.078149,1.449801,-59.494411,38.255699,40.573280
402,137240402,-137.744431,19.815092,164.005295,1.914282,-0.244101,1.514428,-75.087791,36.368252,45.848568
403,137257069,-139.539871,19.922966,162.914154,2.020263,-1.152758,1.363425,-85.145744,33.338428,50.561974
404,137273736,-141.260773,20.048059,161.777756,2.202256,-1.765731,0.990654,-79.618225,32.581379,54.228390
405,137290403,-142.745193,20.134777,160.587936,2.369996,-1.654866,0.566091,-64.210152,34.701782,56.109001
406,137307070,-144.001892,20.158169,159.349579,2.173471,-1.317322,0.150645,-49.476486,38.024807,56.891598
407,137323737,-145.267914,20.113665,158.142166,2.469735,-0.999005,-0.024194,-50.686131,39.082775,53.989670
408,137340404,-146.746262,20.007423,156.950897,2.084240,-1.271110,0.472264,-63.841774,40.371223,52.176853
409,137357071,-148.606308,19.805899,155.729523,2.164536,-1.509937,0.318147,-86.306244,44.615814,51.837151
410,137373738,-150.699219,19.478975,154.379578,1.668270,-2.154506,0.027755,-97.996246,53.031273,56.000500
411,137390405,-152.610458,18.957085,152.938095,1.464207,-2.874802,-0.502649,-85.849510,63.903339,57.098526
412,137407072,-154.212524,18.248726,151.527481,1.376232,-2.752850,-1.113320,-68.770615,71.486488,52.801163
413,137423739,-155.793015,17.414948,150.180099,0.800158,-2.324048,-1.262568,-69.716362,75.446922,48.708565
414,137440406,-157.720886,16.491512,148.937103,0.849955,-2.018367,-1.692446,-93.566261,76.654083,43.792171
415,137457073,-159.962036,15.415197,147.735214,0.820577,-1.921596,-2.194125,-114.286057,82.851784,41.470001
416,137473740,-162.273560,14.126668,146.489059,0.298497,-1.887684,-2.762733,-119.261070,94.156090,43.517971
417,137490407,-164.429993,12.580338,145.225418,-0.025762,-1.927219,-3.155483,-111.504227,107.635765,44.237255
418,137507074,-166.389709,10.732266,143.993973,0.209266,-1.654679,-3.410539,-102.280838,123.149841,42.251442
419,137523741,-168.427460,8.597277,142.868195,0.868502,-0.727747,-3.405386,-110.545578,137.152039,37.232365
420,137540408,-170.838303,6.274435,141.910858,1.150960,-0.028875,-3.117361,-136.828476,144.970200,31.127529
421,137557075,-173.633667,3.812584,141.191833,1.006353,-0.086076,-2.941399,-163.529648,149.795578,22.823269
422,137573742,-176.613617,1.214805,140.783173,0.672362,-0.427303,-2.665403,-177.315659,155.024017,11.368714
423,137590409,-179.543472,-1.490778,140.741837,0.880524,-0.598327,-2.845187,-175.390823,159.968094,-2.735980
424,137607076,177.638214,-4.220561,141.073700,1.550658,-0.540845,-3.370058,-167.701645,161.735992,-16.917213
425,137623743,174.957504,-6.861334,141.761505,1.454869,-0.161101,-3.299003,-156.457291,158.407928,-30.494701
426,137640410,172.474411,-9.324502,142.834641,0.860130,0.180957,-3.318303,-139.527374,151.516052,-46.909943
427,137657077,170.024628,-11.506450,144.320969,0.467703,0.877615,-2.828479,-130.477783,140.368851,-66.484634
428,137673744,167.585556,-13.382731,146.264175,0.057738,1.332217,-1.902987,-120.839027,130.164566,-89.525757
429,137690411,165.313919,-15.012013,148.695770,-0.894746,1.931298,-1.020630,-100.141129,125.791664,-114.282059
430,137707078,163.256378,-16.322451,151.636902,-1.040729,2.908939,-0.652509,-75.432266,119.314926,-141.938385
431,137723745,161.433304,-17.190006,155.051117,-1.086602,4.201960,0.237974,-49.970398,106.694168,-170.790329
432,137740412,160.047958,-17.563055,158.852158,-3.763959,3.934208,1.833877,-14.665714,90.524063,-197.744858
433,137757079,158.915741,-17.226854,162.968384,-6.280598,3.346655,2.665811,6.233051,61.322655,-227.444992
434,137773746,158.035492,-16.207483,167.042862,-8.188171,2.328635,2.271265,17.820227,26.619314,-239.899384
435,137790413,157.764648,-14.847737,170.567764,-9.891500,0.296445,-0.423639,40.652405,-1.329980,-219.165497
436,137807080,158.300018,-13.589538,173.045822,-9.778057,-1.041199,-2.533036,68.901871,-18.533812,-161.596573
437,137823747,159.207825,-12.868220,174.244965,-8.608892,-0.880059,-0.692616,71.184219,-17.429607,-80.671349
438,137840414,159.996017,-12.942090,174.225784,-6.389614,2.567497,0.809119,47.282780,1.268806,2.870713
439,137857081,160.631973,-13.708773,173.033752,-4.976725,4.655766,1.433278,21.924742,17.353498,81.292442
440,137873748,161.036453,-14.686406,171.241013,-3.735886,5.150521,0.924382,-1.844835,18.638821,118.016945
441,137890415,161.129639,-15.437824,169.401398,-2.732267,4.964746,0.087463,-22.807526,5.549257,115.704445
442,137907082,160.672409,-15.758609,167.910324,-1.944480,5.228018,0.104133,-51.187527,-12.562828,87.985916
443,137923749,159.942520,-15.808907,166.865738,-1.298373,5.506387,1.552876,-60.524002,-20.047291,58.061512
444,137940416,159.527969,-15.946123,166.096909,-2.223233,4.012115,2.205235,-37.162659,-10.219450,44.735439
445,137957083,159.658112,-16.194345,165.449661,-2.833812,2.948018,1.659402,-2.601420,-1.638620,40.428928
446,137973750,160.026978,-16.445736,164.792892,-2.879871,2.970414,1.174582,11.404031,-1.468629,40.953999
447,137990417,160.500427,-16.681019,163.996948,-2.162712,3.821018,0.994870,15.144649,-4.777759,48.105827
448,138007084,161.371216,-16.940849,162.933411,-0.966513,4.003467,1.149011,34.150249,-7.835594,63.078602
449,138023751,162.792587,-17.204557,161.563736,-1.644849,3.191562,1.360926,61.521141,-11.740378,79.866241
450,138040418,164.430969,-17.195932,160.029434,-2.618376,3.014562,1.778361,71.452332,-27.944529,84.471542
451,138057085,166.018234,-16.811829,158.398880,-3.539012,2.726315,1.663136,67.001465,-48.790527,84.829247
452,138073752,167.521637,-16.119465,156.741867,-3.887374,2.369235,1.121253,62.402584,-64.920013,83.546295
453,138090419,169.108994,-15.269805,155.087189,-3.923922,2.129990,0.810996,68.763893,-71.955261,83.507805
454,138107086,170.839264,-14.347229,153.449768,-3.509968,2.424925,0.719275,79.080856,-73.736183,84.128212
455,138123753,172.668640,-13.381312,151.824966,-3.234273,2.507595,0.913321,86.776733,-73.637260,85.586327
456,138140420,174.395752,-12.281952,150.284622,-2.943583,2.673869,0.440177,83.474434,-78.412926,82.337524
457,138157087,175.818665,-10.912049,148.906479,-2.442526,2.548202,-0.162757,69.124954,-91.535172,73.918442
458,138173754,177.036087,-9.289354,147.730194,-2.106912,1.881241,-0.177532,61.039268,-104.244835,63.504578
459,138190421,178.323502,-7.562036,146.741364,-1.680679,1.164057,-0.596294,68.918640,-108.682144,54.666634
460,138207088,179.843170,-5.862132,145.935059,-1.048141,0.678084,-1.355305,85.888321,-105.507988,46.623505
461,138223755,-178.427704,-4.248553,145.283997,-1.038627,0.459330,-1.988325,100.662796,-99.088470,40.324390
462,138240422,-176.750046,-2.638252,144.802734,-1.304384,0.759709,-2.368140,99.278145,-98.082352,33.077671
463,138257089,-175.330322,-0.954297,144.520691,-0.945268,1.062997,-2.320897,85.001495,-102.391090,24.068724
464,138273756,-174.090668,0.758128,144.416565,-0.240490,0.493101,-1.864803,74.714249,-104.495186,15.907521
465,138290423,-172.834564,2.390589,144.485931,0.321416,-0.254224,-1.803471,75.594414,-100.544685,7.233565
466,138307090,-171.526215,3.950153,144.748413,0.748535,-0.871790,-2.541475,77.968277,-97.597931,-2.632503
467,138323757,-170.207474,5.487655,145.184647,0.958383,-0.855439,-3.245096,77.304848,-97.967255,-10.898179
468,138340424,-168.888016,6.998558,145.690598,0.471656,-0.574388,-3.224496,76.196411,-97.362373,-13.015239
469,138357091,-167.372757,8.414443,146.265198,-0.413054,-0.610377,-2.595488,86.618668,-92.895218,-15.741884
470,138373758,-165.580978,9.717920,147.010117,0.089720,-0.477577,-1.646209,100.783005,-89.088730,-24.408577
471,138390425,-163.671082,10.932665,147.963150,1.546427,-0.659012,-1.599793,104.658089,-87.912735,-34.707405
472,138407092,-162.069824,12.137610,149.090927,2.584062,-0.925150,-2.248435,82.856987,-91.328049,-41.849567
473,138423759,-160.932953,13.388785,150.346405,2.515179,-1.272356,-2.407802,51.884171,-97.199158,-45.640732
474,138440426,-159.909973,14.609753,151.708252,1.365052,-1.588503,-1.629798,41.923695,-98.279160,-49.943752
475,138457093,-158.559418,15.666402,153.181488,0.439389,-1.546614,-1.077040,58.255291,-92.211281,-57.096569
476,138473760,-156.831253,16.556774,154.760880,0.867056,-1.742633,-1.332413,77.690308,-86.652382,-63.746075
477,138490427,-154.935623,17.330816,156.390640,1.489174,-2.515750,-2.164900,85.534996,-83.276344,-66.191223
478,138507094,-153.224030,18.027899,158.009399,1.755849,-3.100458,-2.792723,73.488037,-80.726013,-64.737656
479,138523761,-151.777603,18.609140,159.564621,1.268592,-3.297291,-2.610522,57.742344,-74.487541,-62.264988
480,138540428,-150.363434,18.981945,161.044571,0.554967,-2.573425,-1.295434,56.519119,-62.883072,-62.540226
481,138557095,-148.813049,19.081217,162.443954,0.291558,-1.892919,-0.522833,65.917442,-47.956871,-65.227036
482,138573762,-147.183945,18.970135,163.824905,1.148179,-1.661656,-0.903867,71.004288,-38.496422,-69.747185
483,138590429,-145.641113,18.810123,165.292358,2.369749,-1.903309,-1.688175,64.329247,-40.721981,-74.496346
484,138607096,-144.141937,18.677698,166.905792,3.090430,-2.869452,-1.809440,59.103580,-48.851460,-79.352501
485,138623763,-142.443848,18.473831,168.593719,2.247239,-3.323342,-0.585773,69.877808,-50.193146,-84.063896
486,138640430,-140.485046,18.104301,170.280716,1.512085,-2.176629,0.747709,86.010849,-45.147789,-88.782921
487,138657097,-138.488113,17.602160,171.810303,1.833988,-1.253125,0.996034,91.922348,-36.457745,-85.779770
488,138673764,-136.720612,17.127230,173.137024,2.569216,-0.774146,0.749392,82.536140,-32.791054,-75.114273
489,138690431,-135.291290,16.809082,174.303162,3.055458,-0.981218,0.670273,65.582863,-35.358486,-61.201092
490,138707098,-134.013199,16.618565,175.383759,3.142340,-0.900123,1.257957,58.284184,-38.745079,-51.571835
491,138723765,-132.683395,16.465496,176.389648,2.851880,-0.158632,2.165854,62.845036,-38.371162,-46.197060
492,138740432,-131.304077,16.299673,177.269318,2.883936,0.810254,2.482274,68.114746,-33.577457,-41.077553
493,138757099,-130.037292,16.159266,177.984329,3.151083,1.076170,2.179765,64.258774,-28.351042,-33.042442
494,138773766,-129.038177,16.107088,178.574997,3.314439,0.948204,1.743423,50.344921,-26.861786,-23.897291
495,138790433,-128.349091,16.130539,179.080704,3.073767,0.546544,1.476601,33.168453,-26.226242,-16.937328
496,138807100,-127.936806,16.168196,179.487793,2.528860,1.112029,1.466906,18.188620,-22.442308,-12.529596
497,138823767,-127.765999,16.207355,179.699921,1.869186,1.636784,1.661446,6.948878,-13.686054,-5.460543
498,138840434,-127.765587,16.261812,179.712997,2.031509,1.432215,1.342439,0.055842,-5.192284,2.303587
499,138857101,-127.880898,16.364605,179.624054,2.364824,0.968462,0.784201,-5.169118,-2.333087,8.192026
500,138873768,-128.059509,16.517845,179.511398,2.446875,0.508294,0.431772,-8.549346,-3.143385,11.416440
501,138890435,-128.236282,16.683157,179.407059,2.121796,0.135851,0.342430,-8.566430,-4.003165,11.684221
502,138907102,-128.446045,16.830929,179.314270,1.552450,0.038282,0.326844,-10.726940,-3.912343,10.441456
503,138923769,-128.749832,16.979647,179.204636,1.178377,0.077927,0.215227,-16.061348,-3.241573,11.080153
504,138940436,-129.180069,17.166515,179.063614,1.171912,-0.268082,-0.059727,-23.077923,-3.355426,13.984155
505,138957103,-129.666290,17.423185,178.914902,1.237009,-0.722444,-0.282401,-26.269695,-5.792306,17.487267
506,138973770,-130.070587,17.731316,178.800385,1.144283,-0.865533,-0.398668,-21.930635,-9.415821,18.570387
507,138990437,-130.348160,18.043020,178.722961,0.832658,-0.850412,-0.582763,-14.978904,-11.292089,17.318981
508,139007104,-130.529114,18.329697,178.669250,0.593021,-0.883771,-0.674373,-9.603047,-11.419258,15.261599
509,139023771,-130.672195,18.586164,178.622879,0.379394,-0.984404,-0.864189,-7.456788,-10.603825,13.586049
510,139040438,-130.827438,18.832127,178.581528,0.309151,-0.846742,-0.942296,-8.272066,-10.447906,12.900689
511,139057105,-130.968170,19.052383,178.512512,0.306968,-0.861137,-1.045912,-6.854657,-8.286011,12.741863
512,139073772,-130.993729,19.240341,178.400970,0.326321,-0.937191,-1.063410,0.904776,-5.216413,12.850430
513,139090439,-130.877136,19.369110,178.274307,0.374464,-0.701649,-1.050255,9.750782,-2.241599,10.725267
514,139107106,-130.693085,19.433876,178.156509,0.453679,-0.361264,-1.149862,13.632903,-0.086571,7.487924
515,139123773,-130.525177,19.432531,178.055862,0.460393,-0.158538,-1.111147,12.324869,1.777516,3.835932
516,139140440,-130.424316,19.371004,177.991959,0.521746,-0.183410,-1.095205,7.565269,2.548176,-0.269497
517,139157107,-130.384735,19.274033,177.961197,0.472612,-0.278965,-0.921304,3.227155,2.499960,-3.108626
518,139173774,-130.336075,19.127962,177.923431,0.327051,-0.316575,-0.641418,3.906622,4.707570,-5.099553
519,139190441,-130.247177,18.933813,177.843491,0.332072,-0.226706,-0.447481,7.138859,8.393575,-5.758237
520,139207108,-130.135117,18.715284,177.715714,0.542711,-0.147229,-0.366718,9.437371,11.407388,-5.137400
521,139223775,-130.072952,18.499174,177.580338,0.744783,-0.199245,-0.407109,6.564648,11.643894,-4.761634
522,139240442,-130.102844,18.301987,177.462646,0.777641,-0.259754,-0.273189,0.677296,10.144906,-4.540813
523,139257109,-130.224457,18.118782,177.365540,0.778941,-0.241249,-0.050234,-5.234918,8.717932,-4.635081
524,139273776,-130.350616,17.958040,177.246368,0.740466,-0.285683,0.210816,-5.115907,8.821919,-2.765519
525,139290443,-130.376648,17.812248,177.081879,0.814797,-0.474821,0.303610,1.710794,10.219746,-0.387546
526,139307110,-130.285416,17.688391,176.897125,1.053550,-0.623053,0.120901,9.094939,10.258218,1.364139
527,139323777,-130.172882,17.595091,176.730682,1.129288,-0.474184,0.019076,10.017588,8.280636,2.068015
528,139340444,-130.182114,17.532969,176.576263,1.077453,-0.349888,0.012865,2.481045,6.554719,3.047867
529,139357111,-130.331284,17.500790,176.395981,0.976814,-0.440080,0.142623,-5.454495,6.519017,5.387883
530,139373778,-130.538208,17.486452,176.165359,1.039617,-0.649550,0.169008,-8.017087,8.003557,8.100630
531,139390445,-130.658890,17.480400,175.868774,1.088451,-0.760647,0.156097,-1.654556,10.525437,10.966667
532,139407112,-130.677933,17.460676,175.497253,1.094211,-0.782789,0.145399,5.786270,14.299547,13.154798
533,139423779,-130.696350,17.430626,175.072647,1.217692,-0.549544,0.080645,6.772376,17.007359,14.673590
534,139440446,-130.852982,17.392593,174.619263,1.395278,-0.328421,-0.066059,-1.020835,18.545557,15.417206
535,139457113,-131.177170,17.353237,174.141449,1.607079,-0.235982,-0.073765,-10.653094,19.597771,16.370153
536,139473780,-131.593552,17.304325,173.604767,1.599448,-0.226886,0.046390,-15.153016,22.406040,18.314562
537,139490447,-132.009628,17.234484,172.982529,1.486167,-0.290928,0.286166,-13.642361,26.771879,20.833561
538,139507114,-132.398087,17.135088,172.281464,1.584435,-0.471962,0.332756,-10.638423,31.176245,22.771784
539,139523781,-132.868149,17.038620,171.561295,1.930834,-0.548781,0.084556,-15.267776,31.710684,23.908369
540,139540448,-133.506714,16.972157,170.838730,2.160179,-0.584277,0.078310,-25.392012,30.364943,25.658957
541,139557115,-134.265106,16.915964,170.076050,2.034748,-0.673365,0.403103,-31.924776,31.293226,28.107323
542,139573782,-135.023087,16.830345,169.236420,1.888957,-0.758140,0.626749,-30.614885,35.318230,30.413702
543,139590449,-135.721939,16.721945,168.318588,1.603104,-0.995471,0.801763,-25.792709,39.077740,33.147182
544,139607116,-136.441849,16.603518,167.374695,1.884768,-1.011770,0.692325,-26.712837,40.164131,34.345970
545,139623783,-137.269592,16.501228,166.419952,2.370722,-0.952030,0.369581,-33.101688,39.439861,36.058681
546,139640450,-138.224350,16.433033,165.429977,2.703690,-1.168267,0.177131,-40.202641,38.744495,39.601612
547,139657117,-139.191330,16.358160,164.399689,2.832535,-1.164095,0.141475,-40.325787,39.926559,41.782745
548,139673784,-140.105026,16.261400,163.295090,2.397990,-0.902106,0.477192,-35.963318,43.028309,44.905872
549,139690451,-141.089142,16.161358,162.125244,1.863646,-0.979801,0.719065,-39.203735,44.841114,48.459843
550,139707118,-142.251419,16.043287,160.962845,2.181808,-1.152637,0.480150,-50.144844,44.533524,48.360306
551,139723785,-143.551071,15.849909,159.772156,2.767399,-1.107095,0.114969,-58.102085,48.111656,47.980083
552,139740452,-144.834976,15.524710,158.503448,3.250472,-0.878708,-0.181558,-56.200455,56.127205,48.210152
553,139757119,-145.969452,15.054758,157.153091,3.009332,-0.456799,0.245853,-46.450363,65.014755,48.513340
554,139773786,-147.185425,14.534680,155.789169,1.704756,-0.543552,0.675562,-51.806583,67.053680,49.038624
555,139790453,-148.854156,14.035928,154.572449,1.933544,-0.754941,0.666910,-81.852531,60.283802,44.351334
556,139807120,-150.776260,13.496106,153.465698,2.065358,-1.513092,0.377838,-99.265411,57.861485,39.660954
557,139823787,-152.588852,12.841855,152.421539,2.248834,-2.000270,-0.211941,-94.222015,60.931389,35.277325
558,139840454,-154.065994,12.054372,151.420197,2.102408,-2.089628,-0.724969,-75.418808,65.993843,31.408550
559,139857121,-155.276001,11.139498,150.489182,1.761130,-1.725802,-1.080064,-61.112122,70.466736,26.172594
560,139873788,-156.427536,10.114861,149.690994,1.314127,-1.312307,-1.247226,-60.001266,72.797684,17.996775
561,139890455,-157.709885,8.986494,149.083054,1.080581,-1.151268,-1.468904,-70.629959,73.811836,6.948591
562,139907122,-159.143387,7.732822,148.679016,0.998607,-1.001641,-1.518559,-82.224945,76.215385,-5.154746
563,139923789,-160.661163,6.325362,148.406891,0.810755,-0.879057,-1.882904,-88.807396,82.321671,-13.597892
564,139940456,-162.170456,4.759194,148.181686,0.208564,-1.248329,-2.196271,-88.991447,90.806038,-16.992603
565,139957123,-163.613846,3.061942,148.081985,-0.083832,-1.377177,-2.661434,-85.934654,96.534920,-24.045542
566,139973790,-165.106110,1.302622,148.196548,-0.171949,-1.058282,-2.854084,-89.536346,97.250137,-34.862167
567,139990457,-166.809448,-0.507215,148.568817,-0.427705,-0.477069,-2.844110,-102.094681,97.375717,-47.808193
568,140007124,-168.830032,-2.399125,149.059570,-1.220328,0.147631,-2.254144,-120.226578,102.200623,-52.512062
569,140023791,-171.063065,-4.440526,149.568848,-1.958109,0.327976,-1.554380,-131.893906,112.730423,-51.201054
570,140040458,-173.507828,-6.549180,150.143646,-2.058839,0.247922,-1.451948,-143.118591,118.215874,-50.788563
571,140057125,-176.146790,-8.575221,150.857544,-2.090605,-0.118614,-1.623069,-152.434891,114.686981,-53.032955
572,140073792,-178.880249,-10.377285,151.794617,-2.009610,-0.451840,-2.089507,-154.489090,103.060219,-59.877975
573,140090459,178.469376,-11.902209,152.972778,-1.699489,-0.225476,-2.482734,-145.109940,89.182884,-68.808044
574,140107126,176.158112,-13.232166,154.372391,-1.468077,0.507652,-2.813859,-120.152649,80.984550,-77.908318
575,140123793,174.276123,-14.380856,156.050476,-1.609329,1.698510,-2.869634,-88.643394,74.262138,-91.460075
576,140140460,172.393158,-15.192267,158.000122,-2.636344,2.915962,-3.008939,-82.876015,58.908688,-106.457359
577,140157127,170.138306,-15.527946,160.205780,-2.748545,3.768395,-2.472839,-99.984505,36.708374,-122.846634
578,140173794,167.802872,-15.607436,162.534027,-3.336525,3.606247,-1.016230,-102.379631,27.845835,-130.941879
579,140190461,165.822144,-15.694686,164.854675,-4.559715,3.074013,0.549869,-81.027542,33.097603,-129.113022
580,140207128,164.091690,-15.748095,167.012222,-6.022277,2.411385,0.892444,-68.501495,32.843666,-119.270065
581,140223795,162.464798,-15.665920,168.876160,-6.331834,1.512722,0.380845,-67.091698,23.654535,-104.296227
582,140240462,161.197540,-15.564622,170.290848,-5.959490,0.873404,-0.497809,-52.945778,17.109013,-79.339844
583,140257129,160.734421,-15.689341,171.152771,-4.970149,0.871840,-0.035759,-13.619050,20.702007,-44.414322
584,140273796,161.207306,-16.165928,171.428345,-4.191765,1.460709,1.074108,33.146866,29.597149,-5.486010
585,140290463,162.003754,-16.718372,171.249771,-3.261273,2.993625,1.282579,44.991779,25.587271,20.431452
586,140307130,162.424438,-17.016829,170.781281,-2.845674,3.800717,0.929619,17.324940,6.206761,31.305285
587,140323797,162.271957,-17.032652,170.183853,-2.275538,4.474379,0.981386,-19.399120,-12.119871,33.164837
588,140340464,161.822983,-17.006844,169.515076,-1.951745,4.540051,1.421356,-38.432705,-15.934242,36.240383
589,140357131,161.407822,-17.088915,168.877014,-1.498855,4.454031,1.570078,-35.878983,-9.509202,36.505131
590,140373798,161.168777,-17.240185,168.362518,-1.521282,3.651690,1.648206,-23.192232,-3.507012,31.063051
591,140390465,161.034088,-17.363304,167.993698,-1.405221,3.133267,1.821857,-14.400931,-2.498320,22.598276
592,140407132,160.899704,-17.436260,167.681992,-1.135405,3.367625,1.347716,-13.388001,-4.327479,18.510878
593,140423799,160.996078,-17.521156,167.294876,-0.923763,3.206077,1.095645,-0.924415,-5.065561,22.818556
594,140440466,161.592682,-17.649858,166.796616,-1.092746,2.620773,1.039841,27.035955,-4.476178,29.688404
595,140457133,162.612747,-17.717150,166.234253,-1.672380,2.078831,0.872946,51.228073,-8.690222,32.046841
596,140473800,163.650452,-17.615498,165.573456,-2.153649,1.863696,0.802893,50.504963,-19.454754,34.595325
597,140490467,164.425400,-17.367344,164.718674,-2.239029,2.047386,0.716623,31.358932,-30.426649,43.151031
598,140507134,165.105148,-17.060232,163.558044,-2.735931,1.787720,0.530330,20.453955,-37.921104,59.552353
599,140523801,165.922089,-16.737556,162.117249,-3.315453,1.459735,0.456728,24.163303,-42.102276,75.452805
600,140540468,166.905167,-16.323387,160.498962,-3.616541,1.618637,0.557023,31.631987,-48.692978,84.853378
601,140557135,167.934509,-15.717953,158.798752,-3.226259,2.071881,0.394152,33.879009,-59.484951,87.991318
602,140573802,168.951584,-14.921515,157.054947,-2.661072,2.043530,0.342692,33.652924,-69.713730,89.498016
603,140590469,170.000992,-13.977328,155.349640,-2.395408,1.760187,-0.041077,37.702946,-76.479820,87.276230
604,140607136,171.156235,-12.924608,153.767197,-1.817683,1.719799,-0.474097,47.497272,-80.116112,80.962746
605,140623803,172.398819,-11.823888,152.344452,-1.384614,1.869328,-0.483528,56.528889,-79.982841,73.282181
606,140640470,173.634293,-10.709865,151.088730,-1.200518,2.121296,-0.508192,59.676285,-78.027687,65.421829
607,140657137,174.735626,-9.546819,150.002090,-1.248202,2.165068,-0.905283,54.882652,-78.628677,56.988670
608,140673804,175.681152,-8.305609,149.096512,-1.141312,1.850813,-1.358361,48.570690,-81.402168,47.475082
609,140690471,176.558289,-7.053549,148.350540,-0.913586,1.408197,-1.474960,46.916927,-80.663139,39.376396
610,140707138,177.520355,-5.896677,147.734207,-0.729961,0.930752,-1.223632,53.824215,-73.930511,33.314991
611,140723805,178.573303,-4.861567,147.230652,-0.637562,0.751765,-1.127426,60.614090,-65.811333,28.149195
612,140740472,179.544754,-3.854615,146.844345,-0.464126,0.907972,-1.019013,56.796021,-63.505543,22.322069
613,140757139,-179.636902,-2.787940,146.552048,-0.574942,1.086860,-0.786172,48.355537,-66.732605,17.663698
614,140773806,-178.828308,-1.629152,146.328156,-0.603718,0.641627,-0.725617,48.268360,-72.061241,14.564449
615,140790473,-177.802231,-0.391239,146.159241,-0.570734,-0.009540,-1.148655,61.654327,-76.666313,12.520787
616,140807140,-176.509995,0.924253,146.097931,-0.042068,-0.610837,-1.634539,77.817780,-81.372940,7.799667
617,140823807,-175.019913,2.302941,146.186890,0.092039,-0.622445,-2.071537,89.519402,-85.612930,0.998738
618,140840474,-173.526321,3.740911,146.431458,0.332960,0.061556,-1.805541,89.104301,-90.032364,-5.754040
619,140857141,-172.110199,5.190727,146.738754,-0.277138,0.743001,-1.036144,83.795586,-91.326927,-7.148508
620,140873808,-170.749542,6.643895,147.097626,-0.458202,0.832861,-0.951508,79.684059,-92.130791,-7.967876
621,140890475,-169.332962,8.132341,147.552811,0.057110,0.181227,-1.642302,81.747490,-95.368729,-11.011863
622,140907142,-167.776657,9.655418,148.158173,0.824227,-0.378892,-2.309649,88.026566,-99.412186,-16.818012
623,140923809,-166.129013,11.203166,148.915115,0.294040,-0.764605,-2.323415,90.900139,-103.273102,-22.330320
624,140940476,-164.620773,12.790257,149.859390,-0.107782,-0.753924,-2.718575,78.981003,-108.850998,-29.355778
625,140957143,-163.275726,14.364639,150.904236,-0.883345,-1.075486,-2.482412,66.249001,-110.347008,-32.220715
626,140973810,-161.791443,15.712821,151.985840,-1.394372,-1.487390,-1.677856,72.480156,-98.689461,-35.280979
627,140990477,-159.984238,16.694355,153.048706,-0.743331,-1.052514,-1.358932,90.899223,-78.414032,-38.354923
628,141007144,-158.106293,17.393925,154.133987,0.789249,-0.450239,-1.572720,93.854240,-64.180069,-42.896507
629,141023811,-156.549210,18.024700,155.370514,1.739478,-0.270517,-1.946672,71.121254,-64.878387,-50.395496
630,141040478,-155.462357,18.720587,156.839478,1.770788,-0.921735,-1.833430,37.698677,-74.868584,-59.206436
631,141057145,-154.596008,19.389114,158.518311,1.389569,-2.094364,-1.385693,19.365499,-79.260193,-69.145523
632,141073812,-153.504272,19.885366,160.265396,1.044291,-2.683973,-1.014468,30.544884,-72.676666,-75.512970
633,141090479,-152.055771,20.123714,161.927338,1.173088,-2.887068,-1.173879,53.063976,-58.275562,-76.549583
634,141107146,-150.550613,20.175945,163.535172,1.815235,-2.005323,-1.352147,57.344330,-48.929867,-77.701164
635,141123813,-149.399216,20.149731,165.154404,2.076104,-0.812414,-0.996688,35.862156,-46.963371,-79.514496
636,141140480,-148.728714,20.115877,166.818649,1.529379,-0.413553,-0.291183,6.129807,-49.139832,-81.227020
637,141157147,-148.263870,20.055782,168.524139,0.967871,-1.396166,0.248647,-6.979335,-49.827133,-83.592224
638,141173814,-147.506927,19.961218,170.310608,1.161937,-2.546097,0.126878,9.012053,-51.416809,-88.092705
639,141190481,-146.262314,19.872095,172.155869,1.882832,-3.453450,-0.490775,37.227608,-55.064796,-89.874092
640,141207148,-144.635529,19.758331,174.026138,2.170408,-3.150801,-0.571245,59.827190,-56.922001,-90.592102
641,141223815,-142.981628,19.634453,175.908401,1.882131,-1.649523,-0.035936,61.428474,-59.449768,-89.969498
642,141240482,-141.574295,19.476109,177.714386,1.807688,-0.881033,0.379442,48.427208,-57.618206,-86.349632
643,141257149,-140.350830,19.270945,179.359512,2.014134,-1.236759,0.520384,40.923336,-51.741570,-79.848930
644,141273816,-139.085022,19.015554,-179.172195,2.645614,-2.019631,0.367525,47.315315,-44.775597,-73.173569
645,141290483,-137.673859,18.705721,-177.853668,3.333256,-2.719443,0.035398,59.351463,-38.475182,-68.086823
646,141307150,-136.269730,18.316730,-176.643112,3.299850,-1.475994,0.270508,61.441338,-32.576813,-66.049973
647,141323817,-135.091888,17.799480,-175.526794,2.834533,0.197625,0.363708,50.158497,-24.921951,-67.021263
648,141340484,-134.202896,17.163654,-174.577728,2.410503,1.385744,0.344611,36.487240,-14.461824,-65.089233
649,141357151,-133.614609,16.473492,-173.855911,2.500902,1.376691,0.111798,23.021343,-3.775825,-58.367107
650,141373818,-133.222443,15.823772,-173.358597,2.627021,0.577070,0.287239,15.489079,3.350344,-47.802258
651,141390485,-132.847733,15.239433,-173.038040,2.439752,-0.026639,0.941727,17.591370,7.759897,-38.064976
652,141407152,-132.483032,14.707875,-172.801285,2.215869,0.326092,1.276370,18.469933,8.906165,-32.545856
653,141423819,-132.211533,14.247241,-172.584106,1.793172,1.059684,1.478103,13.289626,6.675968,-28.723991
654,141440486,-132.151245,13.895576,-172.335922,1.785909,1.145761,1.272527,0.259028,0.852476,-25.133005
655,141457153,-132.274109,13.683752,-172.018433,1.885975,0.688775,1.079438,-11.652820,-7.773191,-21.646559
656,141473820,-132.413376,13.602225,-171.667816,1.771865,0.023669,1.130833,-13.054644,-14.423724,-17.190338
657,141490487,-132.408920,13.606550,-171.353027,1.530673,-0.375780,1.047685,-3.912922,-16.335817,-11.998851
658,141507154,-132.267197,13.658751,-171.114227,1.312696,-0.182661,0.778900,5.385825,-15.003691,-6.871421
659,141523821,-132.108109,13.766170,-170.940857,1.289658,-0.046074,0.410666,7.340318,-14.417452,-1.821398
660,141540488,-132.038681,13.931638,-170.792358,1.338305,-0.229970,0.039824,2.290962,-15.671159,1.761112
661,141557155,-132.087616,14.150079,-170.649353,1.181277,-0.422686,-0.074947,-4.759831,-17.559204,4.336985
662,141573822,-132.171860,14.385372,-170.550095,0.894860,-0.643031,-0.090958,-6.264131,-16.344624,6.784307
663,141590489,-132.195984,14.587439,-170.514572,0.729941,-0.742995,-0.238230,-1.724940,-12.261436,7.783302
664,141607156,-132.175171,14.742826,-170.533875,0.662904,-0.642372,-0.512707,1.796623,-8.022951,7.844591
665,141623823,-132.170624,14.858561,-170.608185,0.612579,-0.459822,-0.709728,1.662540,-4.062329,8.220698
666,141640490,-132.211243,14.944755,-170.741745,0.607040,-0.445968,-0.690423,-0.123748,-0.324347,9.216944
667,141657157,-132.275192,15.001265,-170.915863,0.756800,-0.511165,-0.749421,-0.887275,2.600874,9.475580
668,141673824,-132.320236,15.021235,-171.110291,0.926296,-0.466172,-0.755182,0.568711,4.936190,8.647945
669,141690491,-132.298416,14.987998,-171.307312,0.945082,-0.437279,-0.644595,4.619809,7.201646,6.393272
670,141707158,-132.250610,14.907484,-171.490814,1.017682,-0.225273,-0.672956,5.955998,8.535314,3.761156
671,141723825,-132.243591,14.812751,-171.659576,1.185175,-0.152287,-0.683409,3.265076,8.480450,2.550930
672,141740492,-132.295776,14.730621,-171.818771,1.230792,-0.310533,-0.435860,-0.447492,7.567151,2.742960
673,141757159,-132.372971,14.661228,-171.970428,1.177771,-0.452484,-0.164247,-2.077113,6.729552,3.025558
674,141773826,-132.446457,14.587696,-172.148529,1.079698,-0.540955,0.015882,-1.465149,8.032113,3.891563
675,141790493,-132.483490,14.510759,-172.387283,0.951195,-0.628460,0.112461,1.620599,10.767372,6.129897
676,141807160,-132.514481,14.447061,-172.702805,0.875658,-0.751277,0.111218,3.116755,13.522015,9.738464
677,141823827,-132.598633,14.412244,-173.094208,0.844369,-0.681756,0.115253,1.045621,15.591135,14.013824
678,141840494,-132.735519,14.396125,-173.560013,0.856386,-0.591342,0.103358,-1.020041,17.988295,17.805637
679,141857161,-132.879242,14.373305,-174.072250,0.859928,-0.353115,0.023308,-0.747765,20.201464,19.398211
680,141873828,-132.999161,14.326516,-174.601837,0.927342,-0.144683,-0.088111,0.919402,21.878387,19.084698
681,141890495,-133.126556,14.258709,-175.121429,0.995948,0.015886,-0.264853,0.292619,22.281397,17.823023
682,141907162,-133.299454,14.197946,-175.626038,0.967373,-0.131015,-0.262400,-2.690122,21.319052,17.603701
683,141923829,-133.519272,14.151831,-176.119263,0.868538,-0.215589,-0.128383,-5.700544,20.180586,17.874350
684,141940496,-133.771149,14.124487,-176.619690,0.744632,-0.327930,-0.032940,-7.537007,19.639767,19.071959
685,141957163,-134.022476,14.095817,-177.146805,0.742892,-0.430826,0.082960,-7.129790,20.733112,20.192108
686,141973830,-134.242233,14.066556,-177.711838,0.780483,-0.493199,0.070163,-4.696041,22.262539,21.800163
687,141990497,-134.460709,14.047161,-178.312881,0.880780,-0.403050,0.033457,-4.107589,23.271477,23.785566
688,142007164,-134.724503,14.054809,-178.944504,0.902092,-0.390015,0.070067,-6.384698,23.303030,26.300484
689,142023831,-135.060379,14.088976,-179.594986,0.907269,-0.365207,0.035564,-10.422961,22.817528,28.332174
690,142040498,-135.426468,14.139319,179.741547,0.951141,-0.364120,0.008643,-12.016261,22.484041,29.702902
691,142057165,-135.758331,14.182896,179.067581,1.095622,-0.333245,-0.044505,-9.776624,23.016418,29.998659
692,142073832,-136.041428,14.214229,178.377747,1.140737,-0.242181,-0.004412,-6.591682,24.023674,30.281067
693,142090499,-136.328384,14.241871,177.669449,1.165398,-0.192730,0.053912,-6.529790,24.774704,31.028208
694,142107166,-136.670181,14.269630,176.940750,1.219229,-0.352412,-0.062171,-9.496877,25.418736,32.042324
695,142123833,-137.085373,14.301561,176.215240,1.328645,-0.413552,-0.228739,-13.924460,24.896160,32.255619
696,142140500,-137.556061,14.323842,175.494293,1.405366,-0.348475,-0.287747,-17.301165,24.891138,31.873077
697,142157167,-138.073517,14.309030,174.761887,1.474464,-0.248220,-0.230183,-19.934610,26.713902,31.104555
698,142173834,-138.671585,14.251169,174.017487,1.598798,-0.093410,-0.194129,-24.617271,28.813761,30.198793
699,142190501,-139.377701,14.165258,173.217117,1.717048,0.005070,0.017465,-30.331514,31.886482,31.914404
700,142207168,-140.168335,14.040562,172.317276,1.903899,-0.211423,0.184532,-34.030788,37.003544,35.294117
701,142223835,-141.008011,13.886424,171.315018,2.189259,-0.558987,0.074940,-35.614502,41.676105,39.364178
702,142240502,-141.889771,13.703051,170.226547,2.304277,-0.788272,0.032380,-37.075138,45.612465,42.888386
703,142257169,-142.837036,13.482916,169.065933,2.348793,-0.594722,0.041315,-40.210808,49.280731,45.679344
704,142273836,-143.878159,13.215201,167.821594,2.386055,-0.480177,0.119903,-44.966133,53.737587,48.844860
705,142290503,-145.004135,12.871300,166.491074,2.613755,-0.535610,0.071457,-49.276878,59.507889,51.407890
706,142307170,-146.113495,12.410574,165.082581,3.231113,-0.586622,-0.306031,-47.796925,66.938698,52.514385
707,142323837,-147.213074,11.860979,163.592178,3.802448,-0.722324,-0.574678,-46.898983,73.106781,55.059162
708,142340504,-148.372665,11.241803,162.025192,3.735394,-1.320095,-0.233094,-50.465996,78.049812,58.281029
709,142357171,-149.678879,10.500796,160.443710,3.554200,-1.740271,-0.142059,-60.189480,83.608078,57.154247
710,142373838,-151.020081,9.561238,158.886459,2.946764,-1.834384,0.051442,-63.904213,92.047852,52.213543
711,142390505,-152.294174,8.385113,157.414322,2.255574,-1.685639,-0.016603,-62.375042,101.073799,43.428864
712,142407172,-153.748138,7.050866,156.128311,2.430663,-0.768384,-0.512840,-76.575882,103.585495,31.968903
713,142423839,-155.698883,5.727654,154.964844,1.838506,-0.598238,0.018034,-108.970093,98.978058,28.984072
714,142440506,-158.080963,4.442963,153.866440,0.617994,-2.017824,0.684911,-136.771240,94.234825,30.279676
715,142457173,-160.329788,3.128560,152.907867,-0.006248,-3.571320,0.656164,-130.822357,91.680634,25.819284
716,142473840,-161.945724,1.726399,152.149780,0.175962,-4.013696,-0.195252,-94.728462,91.885986,15.979382
717,142490507,-162.955765,0.222255,151.617996,0.797449,-3.105428,-1.409322,-59.768604,93.252892,3.380414
718,142507174,-163.965256,-1.302293,151.317307,1.820639,-1.196299,-2.764444,-60.454136,90.417625,-8.560342
719,142523841,-165.459244,-2.739318,151.053833,1.197248,-0.866966,-2.941805,-89.909279,84.937317,-7.306557
720,142540508,-167.274719,-4.169616,150.801788,-0.672812,-2.519528,-2.779583,-109.551956,84.564262,-5.364059
721,142557175,-168.918610,-5.718900,150.692108,-1.593356,-3.378157,-3.079463,-98.919044,89.918549,-12.557589
722,142573842,-170.138474,-7.484310,150.777771,-1.770223,-3.276860,-4.006777,-72.329269,100.838882,-24.065781
723,142590509,-171.271851,-9.429605,151.107147,-1.184201,-1.770308,-4.359938,-64.834991,109.634735,-37.932926
724,142607176,-172.744232,-11.443020,151.643997,-0.864935,-0.031074,-3.901800,-82.253258,112.833534,-47.947868
725,142623843,-174.869370,-13.415406,152.390350,-0.523129,0.968841,-3.669400,-117.613266,110.540146,-56.021664
726,142640510,-177.510910,-15.284150,153.379120,-0.697171,1.286878,-4.251664,-143.531174,105.662354,-64.568016
727,142657177,179.639267,-17.026785,154.749969,-0.507686,1.709697,-4.860143,-147.845795,100.670677,-80.695129
728,142673844,177.040466,-18.710560,156.670883,0.997804,3.033202,-5.271121,-120.305504,101.748238,-106.476013
729,142690511,174.956360,-20.376953,159.276550,0.407353,4.863162,-5.282794,-72.484520,107.593452,-139.742523
730,142707178,172.760773,-21.592758,162.712921,-3.838382,5.163228,-3.583709,-57.625664,90.685013,-183.333313
731,142723845,169.012024,-21.585318,167.363754,-6.464450,7.225483,-0.151213,-123.497078,37.747101,-252.308945
732,142740512,163.264969,-20.246862,172.422974,-9.135610,8.880067,5.382314,-237.644363,-13.283867,-290.435150
733,142757179,156.910187,-18.479313,176.253204,-13.991315,0.793258,8.511335,-306.012360,-29.416101,-236.494095
734,142773846,152.559814,-17.685310,177.994797,-13.253951,-8.771087,2.877215,-229.115067,-4.096038,-107.910858
735,142790513,150.578308,-18.023985,178.093918,-9.402864,-8.464405,-3.401477,-116.855110,18.009594,4.954848
736,142807180,150.615891,-18.678648,177.013931,-5.196623,-1.538280,-2.596642,-17.960176,1.451251,73.103081
737,142823847,152.460510,-19.182629,174.997696,-2.608571,3.942340,0.930779,70.937134,-31.338541,116.806671
738,142840514,154.694122,-19.447990,172.854446,0.223186,9.758529,3.164407,91.660126,-42.334866,115.996315
739,142857181,156.148972,-19.536415,171.126434,1.223359,11.135297,4.546008,52.910114,-38.421230,91.320419
740,142873848,156.137848,-19.539125,170.193146,0.150804,9.147195,3.700264,-19.140974,-23.792562,48.568081
741,142890515,155.059280,-19.563534,170.105301,-1.192820,5.930035,1.899632,-66.200134,-3.321839,5.370868
742,142907182,153.866684,-19.804113,170.439316,-1.644142,3.948691,1.038876,-64.511818,18.548477,-10.558560
743,142923849,153.088058,-20.216354,170.721024,-0.995343,3.397432,0.713183,-40.629456,26.604153,-2.920166
744,142940516,152.992065,-20.676102,170.722580,-0.735600,2.109372,1.430588,-5.415614,22.003929,12.671319
745,142957183,153.577255,-21.004890,170.502960,-0.908391,1.591717,2.255139,30.739256,9.457929,20.111433
746,142973850,154.569183,-21.127346,170.117447,-1.323313,1.538968,2.780025,51.521839,-5.458794,22.866488
747,142990517,155.681931,-21.101229,169.588058,-1.734650,1.843700,2.439066,55.644737,-16.519123,26.463581
748,143007184,156.914917,-21.009161,168.978271,-1.526658,1.843734,1.906097,61.160568,-21.422436,29.281748
749,143023851,158.344269,-20.874146,168.346786,-1.979413,1.639984,1.399130,72.549469,-23.604956,29.877594
750,143040518,159.788803,-20.620327,167.683792,-2.343453,1.700698,1.202326,72.915047,-30.167532,29.540791
751,143057185,161.043457,-20.244038,166.938156,-2.753855,1.673925,0.844501,59.998322,-37.983662,32.163738
752,143073852,162.086731,-19.781561,166.055130,-2.730361,1.347736,0.581004,44.803825,-44.736572,38.682625
753,143090519,163.024994,-19.283556,165.034775,-2.503441,0.974962,0.433185,36.168591,-48.480415,46.312973
754,143107186,164.031876,-18.708334,163.946182,-2.242063,0.383216,0.191249,39.493710,-53.293133,49.656830
755,143123853,165.131241,-17.959894,162.919418,-1.526805,0.500460,0.078830,46.921894,-61.530190,44.652023
756,143140520,166.302185,-17.058889,161.966156,-1.233528,0.709961,0.507338,53.386372,-68.545670,39.741528
757,143157187,167.576157,-16.084026,161.080292,-1.512661,0.719646,0.483464,61.614872,-71.195251,36.623745
758,143173854,168.931885,-15.060208,160.241180,-1.501729,0.859524,0.188824,68.165184,-72.726097,35.193378
759,143190521,170.333084,-14.017550,159.432022,-1.368537,1.089346,-0.020583,72.219536,-72.712204,35.180988
760,143207188,171.815079,-12.983821,158.624634,-1.242979,1.022270,-0.180648,77.945335,-71.304565,37.127281
761,143223855,173.399887,-11.934973,157.848373,-1.227859,0.781687,-0.712239,85.375618,-70.988144,37.214329
762,143240522,174.941406,-10.767827,157.184799,-0.933323,1.233917,-1.284859,84.989540,-76.365730,31.933853
763,143257189,176.311218,-9.463622,156.591919,-0.889352,1.461095,-1.566589,76.275764,-83.434479,29.159304
764,143273856,177.521149,-8.119576,156.022812,-1.157594,1.177804,-1.521706,67.716713,-85.084991,29.563276
765,143290523,178.677353,-6.849774,155.465607,-1.423401,1.014656,-1.361095,65.355988,-79.995361,30.811092
766,143307190,179.898621,-5.694229,154.913559,-1.439474,0.909940,-1.402776,69.996796,-72.492592,32.269592
767,143323857,-178.776138,-4.597694,154.410934,-1.273613,0.699997,-1.793721,77.149124,-68.257629,30.887823
768,143340524,-177.470978,-3.422307,154.036438,-0.486805,0.520068,-2.771561,77.075546,-72.519646,24.924200
769,143357191,-176.298111,-2.142789,153.834854,0.348795,0.319181,-2.551705,70.121582,-78.772011,16.448477
770,143373858,-175.222610,-0.870570,153.765671,0.044464,0.321304,-1.860500,64.759377,-78.588409,9.996078
771,143390525,-174.112076,0.335956,153.760071,-0.606093,0.330019,-1.611345,66.968353,-74.818237,7.274669
772,143407192,-172.928009,1.542891,153.816925,-0.541734,0.488664,-2.107605,71.325241,-75.112106,5.000884
773,143423859,-171.676315,2.813751,153.957962,0.089707,-0.089072,-2.696994,75.117355,-79.473549,2.049992
774,143440526,-170.328705,4.069391,154.221039,0.402790,-0.694758,-3.075401,80.245743,-79.651367,-3.564655
775,143457193,-168.860107,5.222098,154.604065,0.096516,-1.246411,-3.204548,86.589058,-74.935738,-9.820444
776,143473860,-167.315109,6.224364,155.138519,0.354538,-0.698197,-2.802615,89.833351,-68.198334,-18.586634
777,143490527,-165.800720,7.079737,155.731918,0.199804,-0.055890,-2.598267,87.071777,-60.905453,-22.241491
778,143507194,-164.376297,7.850688,156.297379,0.040152,-0.282167,-2.271023,81.390778,-56.121296,-20.377825
779,143523861,-163.022690,8.578248,156.872009,0.120510,-0.955090,-2.148774,76.625572,-54.240978,-20.275337
780,143540528,-161.614746,9.242333,157.542953,0.505078,-1.614199,-1.948548,78.571747,-52.804234,-25.564093
781,143557195,-160.091843,9.831759,158.364182,0.613523,-1.871413,-2.220758,83.538887,-52.103786,-34.076942
782,143573862,-158.535751,10.392964,159.317780,0.445237,-2.075263,-2.332788,83.645508,-54.150784,-40.570110
783,143590529,-157.041031,10.926594,160.404037,0.299174,-2.133984,-2.186629,77.946892,-56.601078,-46.963055
784,143607196,-155.536819,11.408697,161.605377,0.003351,-1.600933,-1.288010,76.608192,-57.659885,-52.877151
785,143623863,-153.989243,11.815325,162.878067,0.448718,-1.320321,-0.379252,77.798576,-56.695312,-57.019695
786,143640530,-152.320816,12.139181,164.198547,1.235930,-1.254700,0.034734,83.973183,-55.066826,-60.137775
787,143657197,-150.637939,12.455344,165.599213,1.901618,-1.976782,-0.302529,83.384453,-58.597340,-62.849052
788,143673864,-149.043594,12.828893,167.177109,2.121567,-3.614101,-0.980239,75.246941,-68.501190,-68.370651
789,143690531,-147.533432,13.244259,169.061340,2.309916,-4.242518,-0.980999,65.405472,-81.796501,-80.361397
790,143707198,-146.000458,13.588463,171.154846,1.535204,-2.883507,0.256493,63.119118,-86.923714,-90.646515
791,143723865,-144.309402,13.731728,173.205353,1.305397,-1.238861,0.990841,72.687469,-78.039932,-92.967064
792,143740532,-142.442917,13.672781,174.989273,1.886196,-1.697255,0.418688,86.913452,-61.870178,-85.332878
793,143757199,-140.444275,13.534822,176.593124,2.988186,-2.596384,-0.527502,97.559570,-54.489651,-78.069901
794,143773866,-138.533356,13.424753,178.185074,3.405166,-1.985614,-0.409544,92.658417,-57.973274,-74.682289
795,143790533,-136.892334,13.289833,179.777466,3.136946,-0.024293,0.919230,76.654251,-59.202747,-73.994568
796,143807200,-135.576599,13.108041,-178.748505,3.024754,1.318992,1.777541,59.016850,-54.317051,-69.511803
797,143823867,-134.534836,12.926239,-177.448471,3.465901,1.606667,2.089724,45.211651,-48.589844,-61.284870
798,143840534,-133.627045,12.789630,-176.283463,3.949930,1.347230,1.853266,39.191090,-45.871437,-53.098969
799,143857201,-132.773972,12.735375,-175.254745,4.035118,0.637236,1.835874,37.831657,-44.261311,-43.393116
800,143873868,-131.971786,12.728328,-174.359787,3.709306,0.437041,1.895924,36.580200,-41.010300,-35.435844
801,143890535,-131.310959,12.770568,-173.648102,2.975456,0.865105,1.870629,30.508223,-35.397755,-25.611326
802,143907202,-130.912613,12.861956,-173.181671,2.456342,1.348461,1.722811,17.979660,-26.747000,-13.650566
803,143923869,-130.796951,12.990685,-172.973953,2.230806,1.545472,1.202610,4.440421,-16.816393,-1.950576
804,143940536,-130.855270,13.154517,-172.979156,2.080481,1.213153,0.953265,-3.135585,-8.769664,7.783107
805,143957203,-130.979919,13.327599,-173.076141,2.047616,0.837621,0.545033,-5.851443,-5.092986,11.693927
806,143973870,-131.205276,13.522704,-173.150909,1.898286,0.609348,0.175861,-12.180862,-6.968865,11.825902
807,143990537,-131.513550,13.717378,-173.181992,1.481552,0.440828,0.124999,-17.757418,-8.917794,10.093797
808,144007204,-131.850525,13.893808,-173.217834,1.137453,0.246809,0.132581,-19.405037,-8.036551,9.421053
809,144023871,-132.203110,14.060514,-173.267242,1.129067,-0.045006,-0.124082,-20.137522,-7.110457,9.479271
810,144040538,-132.565796,14.261508,-173.296112,1.137530,-0.393282,-0.448545,-21.038404,-9.440540,10.159932
811,144057205,-132.904083,14.501137,-173.278946,0.910991,-0.773674,-0.488585,-20.255150,-13.034618,10.003930
812,144073872,-133.197281,14.738744,-173.205978,0.623779,-1.016976,-0.545482,-18.402727,-15.372276,7.642673
813,144090539,-133.441071,14.942264,-173.111938,0.480353,-1.066440,-0.700901,-15.779334,-14.884974,5.263464
814,144107206,-133.603912,15.128331,-173.047546,0.389909,-1.218778,-0.879731,-10.486758,-12.932146,5.644347
815,144123873,-133.682419,15.294399,-173.026764,0.483134,-1.419315,-0.953906,-4.755281,-10.284566,6.499962
816,144140540,-133.688690,15.435140,-173.036911,0.587202,-1.511952,-1.069656,0.062565,-7.940401,6.634056
817,144157207,-133.676620,15.553659,-173.054886,0.696805,-1.178629,-1.089083,1.283177,-6.692550,5.981393
818,144173874,-133.666245,15.640479,-173.101089,0.693903,-1.036650,-1.035946,1.636082,-4.196052,5.733256
819,144190541,-133.625092,15.671979,-173.201309,0.837919,-0.980016,-0.990140,4.355678,0.357137,5.485352
820,144207208,-133.492310,15.642049,-173.377838,0.876464,-1.054603,-0.875926,11.086984,6.103952,5.847198
821,144223875,-133.280426,15.556458,-173.642227,0.913790,-0.982006,-0.698462,17.235628,12.108571,6.881663
822,144240542,-133.045593,15.439151,-173.989777,0.856450,-1.003808,-0.370781,19.915302,16.950907,8.731039
823,144257209,-132.947250,15.323846,-174.371506,1.042502,-0.804692,-0.328372,12.227432,18.351210,10.117606
824,144273876,-133.012024,15.241875,-174.804916,1.192389,-0.630966,-0.137692,3.216648,19.188387,13.618293
825,144290543,-133.094040,15.166379,-175.346878,1.242959,-0.597592,0.130323,3.854371,23.508799,18.224653
826,144307210,-133.055878,15.072369,-176.008713,1.332052,-0.740466,0.168914,12.896671,29.347643,22.174036
827,144323877,-132.950317,14.963046,-176.742477,1.447042,-0.480944,-0.034510,17.986370,33.066479,24.315647
828,144340544,-132.905884,14.863777,-177.504868,1.348149,-0.167216,0.008750,14.684258,33.918457,25.849129
829,144357211,-133.020447,14.773713,-178.251785,1.397345,0.024337,-0.041484,4.835086,32.888798,25.673862
830,144373878,-133.260239,14.703395,-178.985245,1.379716,0.042129,0.021795,-2.939894,31.444059,26.122824
831,144390545,-133.525711,14.646082,-179.734375,1.250113,-0.144342,0.189406,-4.288925,31.467327,27.469118
832,144407212,-133.740906,14.589407,179.457977,1.138207,-0.409949,0.348628,-0.427914,33.798409,29.990387
833,144423879,-133.932190,14.538111,178.598953,0.966231,-0.381385,0.473557,1.737497,35.628254,32.420727
834,144440546,-134.204346,14.523482,177.704636,0.866434,-0.541434,0.418746,-2.608856,35.448860,35.587040
835,144457213,-134.661667,14.573588,176.823639,0.996217,-0.654440,0.170403,-13.901575,31.950098,38.054058
836,144473880,-135.285965,14.689156,175.922043,1.123847,-0.430171,0.039317,-23.534006,29.650452,41.987690
837,144490547,-135.884201,14.837314,174.920929,0.885430,-0.515389,0.426712,-20.324865,31.826893,47.795277
838,144507214,-136.291092,14.956987,173.811569,0.800209,-0.745743,0.591653,-7.037663,36.969952,51.404465
839,144523881,-136.583694,15.052692,172.649765,1.148012,-0.859082,0.236650,0.756694,39.774136,52.832935
840,144540548,-136.919037,15.151850,171.485504,1.455630,-0.767691,-0.102687,-1.653556,39.413902,53.285480
841,144557215,-137.376526,15.252224,170.337708,1.621028,-0.598940,-0.282254,-9.120273,38.325146,52.898701
842,144573882,-137.943237,15.327640,169.195892,1.596164,-0.328325,-0.267754,-15.665024,38.712391,51.975239
843,144590549,-138.566605,15.357192,168.039948,1.364763,-0.079657,0.016594,-18.772854,40.762314,51.161377
844,144607216,-139.265228,15.346597,166.883423,1.385611,0.081582,0.206201,-23.262873,42.010220,50.098091
845,144623883,-140.028458,15.313607,165.740768,1.532329,-0.256518,0.093522,-27.379324,41.879436,49.181610
846,144640550,-140.797836,15.274555,164.620682,1.778383,-0.573199,-0.139845,-28.141737,40.678246,48.538952
847,144657217,-141.527405,15.239421,163.520782,1.922659,-0.564468,-0.058062,-26.110029,39.140549,48.345772
848,144673884,-142.192749,15.173231,162.442657,2.195691,-0.080409,0.121869,-22.652452,39.251003,46.713120
849,144690551,-142.800934,15.078104,161.393158,2.294570,0.336768,0.485031,-19.752773,39.117870,44.817516
850,144707218,-143.503784,14.986110,160.402313,2.344885,0.038199,0.472919,-26.433699,36.436760,42.702583
851,144723885,-144.414078,14.910621,159.493942,2.772103,-0.304919,0.044716,-40.233925,32.240551,39.979816
852,144740552,-145.471710,14.865455,158.607666,3.037912,-0.785683,-0.217928,-49.464245,29.340427,40.574215
853,144757219,-146.478119,14.789609,157.662964,3.054902,-1.451086,-0.278100,-45.542236,32.048969,42.929852
854,144773886,-147.218353,14.566914,156.653397,3.127432,-1.289578,-0.343057,-28.723827,40.858330,41.811890
855,144790553,-147.735718,14.170824,155.574890,2.571164,-1.003488,-0.040117,-14.637108,51.377590,40.136562
856,144807220,-148.523804,13.703952,154.533401,1.996069,-1.119562,-0.068201,-31.881090,53.457825,36.771366
857,144823887,-149.974228,13.252171,153.629196,2.406732,-1.232567,-0.331536,-74.020561,47.928955,31.540136
858,144840554,-151.814377,12.772038,152.740067,1.921139,-2.378468,-0.457026,-98.033363,48.123451,31.468687
859,144857221,-153.515457,12.167518,151.842911,1.682203,-3.363489,-0.763000,-90.077156,54.037441,30.107567
860,144873888,-154.737366,11.363531,150.937149,1.761043,-3.062033,-0.794570,-61.872055,64.316322,26.901424
861,144890555,-155.622940,10.357148,150.031036,1.744348,-2.041164,-0.833061,-42.533306,74.923897,23.197130
862,144907222,-156.717209,9.321672,149.110214,0.460464,-1.770143,-1.011621,-55.853504,76.542198,24.786394
863,144923889,-158.419571,8.387210,148.250488,0.069503,-2.273207,-1.053055,-93.839417,69.000046,25.821924
864,144940556,-160.441071,7.496874,147.437851,-0.318058,-3.078876,-1.040107,-114.192291,64.713448,26.556408
865,144957223,-162.335190,6.538745,146.646057,-0.360794,-3.625126,-1.058852,-107.488625,67.270676,26.471079
866,144973890,-163.800583,5.424224,145.886337,-0.104288,-3.364482,-1.372427,-82.829773,74.922646,24.038504
867,144990557,-164.883621,4.169203,145.197617,0.523600,-2.641206,-1.574769,-61.190464,81.375435,19.484184
868,145007224,-165.905167,2.813761,144.639465,1.146172,-1.488219,-2.224072,-58.919842,84.890221,12.003114
869,145023891,-167.182297,1.431029,144.220261,1.390712,-0.495466,-2.531120,-75.364655,84.304840,5.310603
870,145040558,-168.682510,0.042168,143.949387,0.436492,-0.693114,-2.407879,-89.467842,82.663391,-1.349079
871,145057225,-170.150970,-1.382422,143.943329,-0.405045,-0.846556,-2.462088,-87.778275,81.866089,-15.147528
872,145073892,-171.485138,-2.873159,144.259003,-0.811639,-0.408156,-2.589398,-79.018913,83.056885,-32.748859
873,145090559,-172.872543,-4.400520,144.904449,-0.715178,0.793521,-2.939233,-80.466415,83.305573,-50.541924
874,145107226,-174.528381,-5.871433,145.753510,-0.903829,1.976152,-3.153331,-94.473686,79.926033,-59.888382
875,145123893,-176.351349,-7.290436,146.655594,-2.436072,1.732271,-2.805317,-102.859177,78.359344,-60.125652
876,145140560,-178.046158,-8.723457,147.652115,-4.083482,1.125194,-2.452776,-93.052620,80.734329,-63.088497
877,145157227,-179.471863,-10.170115,148.818680,-5.053570,1.063459,-2.118618,-73.759186,83.013954,-70.647301
878,145173894,179.276001,-11.591933,150.201660,-5.049482,1.811955,-2.173108,-59.185146,83.155235,-81.076950
879,145190561,177.912079,-12.904408,151.755417,-4.226276,3.356922,-2.453749,-61.790993,78.643738,-88.875153
880,145207228,176.265289,-14.107459,153.351074,-3.968704,4.259773,-1.750389,-76.181610,74.479286,-89.035004
881,145223895,174.509064,-15.269632,154.943787,-3.858254,4.356228,-0.334702,-80.875603,74.576202,-86.257904
882,145240562,172.770294,-16.382406,156.580566,-4.593882,3.788020,0.596921,-77.274612,74.435509,-86.227448
883,145257229,170.979385,-17.271650,158.315857,-4.876281,3.263329,1.073479,-77.044136,64.493484,-90.838631
884,145273896,169.013901,-17.780918,160.051544,-4.555337,3.267823,1.287014,-86.300240,44.906883,-92.207352
885,145290563,167.065613,-17.996716,161.508087,-4.161867,2.984491,1.493449,-89.786781,27.445921,-78.397736
886,145307230,165.620483,-18.165966,162.455963,-3.693383,2.389724,1.551936,-68.790359,20.156052,-49.855961
887,145323897,165.214432,-18.478691,162.877396,-3.410776,1.686852,1.150599,-16.147652,21.707529,-18.229254
888,145340564,165.830688,-18.852074,162.925522,-2.790472,2.112181,1.316490,38.167572,19.865204,3.221862
889,145357231,166.886475,-19.107088,162.746994,-2.004615,3.185488,1.715447,60.136211,9.957565,13.716807
890,145373898,167.755478,-19.153257,162.428223,-1.514164,4.075069,1.637011,46.155853,-3.797564,18.499210
891,145390565,168.211807,-19.035294,161.991714,-1.440687,4.206149,1.322276,19.111292,-14.620759,22.995380
892,145407232,168.305786,-18.862848,161.484940,-1.158209,4.293901,1.211203,-3.921319,-18.539989,26.310892
893,145423899,168.246170,-18.745100,160.926208,-1.190422,3.982422,1.642014,-14.051768,-15.935374,29.899273
894,145440566,168.127213,-18.691395,160.353867,-1.476412,3.590440,1.797553,-17.812160,-12.393652,31.434546
895,145457233,167.875946,-18.591932,159.749268,-1.972555,3.083740,1.658673,-26.314903,-15.576653,32.640743
896,145473900,167.446274,-18.352715,159.003784,-2.784858,2.542380,1.591464,-39.584225,-25.694267,38.632484
897,145490567,166.983429,-17.981771,158.062454,-2.482291,2.616484,1.202969,-45.007004,-36.203495,47.661060
898,145507234,167.176971,-17.657661,156.969269,-1.660442,2.360151,0.762749,-8.080335,-35.555199,56.764462
899,145523901,168.247940,-17.441200,155.893005,-1.769817,2.325177,0.422133,45.170341,-28.444510,57.639912
900,145540568,169.506378,-17.069630,154.955551,-1.543957,3.360482,0.996117,59.208710,-34.902527,48.649799
901,145557235,170.360870,-16.447678,154.074799,-2.386739,3.427930,1.124001,36.429890,-48.264362,43.540962
902,145573902,170.763382,-15.635633,153.193344,-3.158017,3.021132,0.620977,9.941943,-59.091438,42.387295
903,145590569,171.100769,-14.769864,152.233810,-3.342531,2.427834,0.018648,5.557225,-62.765247,46.906136
904,145607236,171.701172,-13.937067,151.156769,-2.767760,2.295119,-0.361329,20.415213,-61.497742,54.651119
905,145623903,172.586609,-13.143230,149.978409,-2.114409,2.428891,-0.541131,36.982727,-59.326881,61.797722
906,145640570,173.621338,-12.296683,148.763840,-2.005139,2.620046,-0.480029,46.449116,-61.724113,64.686905
907,145657237,174.762512,-11.296229,147.635498,-2.222100,2.431796,-0.737556,55.042374,-69.205521,60.069023
908,145673904,175.987793,-10.136252,146.707932,-1.713793,2.129373,-0.776993,63.580448,-76.577393,49.105690
909,145690571,177.247757,-8.928726,145.977432,-1.270774,2.182560,-0.638723,68.752937,-77.685211,39.082630
910,145707238,178.413666,-7.709170,145.368637,-0.749903,2.337590,-0.426859,65.085106,-77.310364,33.556137
911,145723905,179.530838,-6.455853,144.776596,-1.319249,1.976943,-0.567501,63.070076,-78.649933,34.098812
912,145740572,-179.262573,-5.137679,144.222168,-1.653474,1.236611,-1.073984,69.454697,-81.854630,33.482548
913,145757239,-177.865555,-3.812814,143.733734,-1.585405,0.810010,-1.348746,81.950401,-81.587357,31.402836
914,145773906,-176.330612,-2.523895,143.322769,-1.328631,0.766355,-1.445490,91.145515,-78.851372,28.712948
915,145790573,-174.907822,-1.239269,143.031357,-0.769687,1.186398,-1.592010,85.201965,-78.386810,23.516552
916,145807240,-173.783798,0.162029,142.847229,-0.416102,1.391641,-1.529634,67.746445,-85.455544,19.483585
917,145823907,-172.957306,1.686428,142.782394,-0.587667,0.646465,-1.898416,50.063240,-93.282455,14.633795
918,145840574,-172.222229,3.207106,142.852951,-0.785119,-0.144214,-1.940421,44.334351,-93.907181,7.777792
919,145857241,-171.488235,4.619613,143.032089,-0.792955,-0.146703,-2.041629,43.713104,-88.299736,1.598498
920,145873908,-170.800293,5.929453,143.209106,-0.891679,0.277165,-1.782413,40.703728,-82.168167,1.853486
921,145890575,-170.136414,7.210008,143.380875,-0.921854,0.181337,-1.389564,39.055363,-80.356773,2.832287
922,145907242,-169.355362,8.510540,143.664978,-0.458013,-0.522041,-1.284487,44.929787,-82.683617,-2.519126
923,145923909,-168.428909,9.854764,144.163910,0.109738,-0.956381,-1.558093,51.204197,-87.726097,-13.252731
924,145940576,-167.491165,11.275019,144.900070,0.699015,-0.971774,-2.014222,48.556847,-95.283241,-24.485054
925,145957243,-166.636139,12.751484,145.756317,-0.032798,-1.047031,-2.664102,40.999180,-100.466270,-28.933327
926,145973910,-165.786850,14.229042,146.683990,-0.887285,-1.361423,-2.633222,38.360233,-101.870270,-31.230307
927,145990577,-164.763168,15.595144,147.655640,-0.998438,-2.089618,-2.559778,46.800083,-96.462791,-33.444000
928,146007244,-163.503159,16.750219,148.700912,0.169223,-2.392327,-2.541705,58.505077,-85.998001,-38.784435
929,146023911,-162.020279,17.661774,149.848602,0.637164,-2.490120,-2.723954,68.970688,-74.586479,-46.404068
930,146040578,-160.526352,18.418074,151.208588,0.848668,-1.871505,-2.596481,64.729057,-70.730820,-58.698257
931,146057245,-159.306320,19.136196,152.898773,1.566000,-0.246785,-2.430861,40.919197,-76.270378,-75.163620
932,146073912,-158.329422,19.851748,154.829834,1.649709,0.124605,-2.382079,20.317377,-82.320122,-86.117828
933,146090579,-157.156464,20.497091,156.920883,1.688886,-1.409349,-1.777009,27.482401,-83.250938,-94.115158
934,146107246,-155.481018,20.968262,159.126389,1.445834,-2.933418,-1.612799,54.052906,-78.396202,-101.778694
935,146123913,-153.476486,21.263981,161.485489,1.657920,-3.477537,-1.827598,69.642799,-75.683250,-111.305733
936,146140580,-151.564896,21.392290,163.919373,1.844130,-2.713884,-1.458192,61.939953,-72.363892,-116.923744
937,146157247,-150.044434,21.349014,166.268005,1.352714,-1.924078,-0.814643,40.235424,-64.494614,-115.615364
938,146173914,-148.878937,21.138000,168.447250,0.815163,-1.889004,0.007657,22.913183,-53.755238,-111.189087
939,146190581,-147.829391,20.753151,170.474442,0.719544,-1.904255,0.755530,19.848509,-42.669235,-108.611855
940,146207248,-146.696762,20.234503,172.367966,0.982758,-1.930024,1.037735,28.534388,-34.093567,-106.138069
941,146223915,-145.383606,19.636942,174.154160,1.432727,-2.346141,0.964499,42.594864,-29.249130,-103.382416
942,146240582,-143.739899,18.977530,175.888367,1.870511,-2.923465,0.855124,64.557037,-27.400261,-102.742752
943,146257249,-141.661774,18.212826,177.586273,1.878495,-2.728546,1.207700,92.529266,-24.695728,-104.405876
944,146273916,-139.307755,17.345423,179.201065,1.931913,-1.605582,1.560854,111.971687,-21.223589,-104.085030
945,146290583,-137.310318,16.501736,-179.244781,3.041988,-0.195880,0.612905,93.013481,-24.194120,-100.084671
946,146307250,-136.068237,15.874562,-177.801926,3.502832,-0.332916,0.455422,50.705906,-32.293030,-86.110367
947,146323917,-135.363861,15.432994,-176.480942,3.325306,-1.203568,1.092019,21.194063,-36.949764,-72.946579
948,146340584,-134.751266,15.068620,-175.289246,2.758023,-1.690537,1.610739,18.261168,-35.868938,-64.090912
949,146357251,-134.004837,14.721914,-174.250305,2.358932,-1.473532,1.816582,29.065943,-31.112045,-56.828461
950,146373918,-133.221786,14.438945,-173.361923,2.443300,-0.703125,1.388959,33.860332,-28.230713,-47.708340
951,146390585,-132.622452,14.311379,-172.554825,2.868967,-0.254324,0.784812,24.228682,-31.721441,-37.387623
952,146407252,-132.304855,14.375561,-171.789841,3.055630,-0.122610,0.550252,7.974045,-37.977352,-27.028629
953,146423919,-132.146622,14.598019,-171.097244,2.836125,-0.139123,0.672040,-0.617155,-41.328403,-17.013138
954,146440586,-131.949966,14.912176,-170.505020,2.493361,-0.217408,0.859105,3.031454,-40.697033,-8.881577
955,146457253,-131.612946,15.282849,-169.988342,2.405648,-0.213555,0.703768,12.424597,-39.684029,-3.229896
956,146473920,-131.193115,15.696151,-169.485367,2.619236,-0.296101,0.165668,17.400791,-40.753849,-0.512655
957,146490587,-130.840424,16.166704,-168.944656,2.618933,-0.218712,-0.216509,12.525992,-44.598507,0.942830
958,146507254,-130.626343,16.678133,-168.423813,2.022017,-0.418971,-0.045549,4.274669,-45.261505,3.798500
959,146523921,-130.562531,17.202299,-167.967514,1.471807,-0.412752,0.092254,-3.888968,-42.868988,6.940415
960,146540588,-130.552628,17.720339,-167.622330,1.090358,-0.807975,0.315365,-5.363060,-37.731998,10.867818
961,146557255,-130.476334,18.219870,-167.388138,1.027502,-0.974971,0.151937,0.493809,-32.139462,14.201388
962,146573922,-130.340637,18.712873,-167.245453,1.233926,-1.092228,-0.244851,5.675470,-27.863037,17.356482
963,146590589,-130.157104,19.185507,-167.177414,1.063646,-0.941840,-0.437983,9.927498,-23.767797,19.246393
964,146607256,-129.934494,19.588945,-167.179489,0.678310,-0.494523,-0.552378,13.633866,-17.981974,18.700062
965,146623923,-129.737488,19.899900,-167.251923,0.404995,0.115045,-0.756929,13.521440,-11.306943,17.042055
966,146640590,-129.622345,20.128841,-167.390701,0.276281,0.259855,-0.672359,9.991866,-5.245116,15.659667
967,146657257,-129.621857,20.283094,-167.546509,0.630149,0.186534,-0.810761,3.493119,-1.639995,12.815955
968,146673924,-129.683258,20.405745,-167.691467,0.773317,0.094703,-0.787598,-0.424543,-0.912530,10.958763
969,146690591,-129.702484,20.491302,-167.846161,0.558985,-0.174851,-0.488983,2.325371,0.919733,9.592465
970,146707258,-129.614899,20.521198,-167.991669,0.338523,-0.281903,-0.316730,8.547543,2.655865,6.684206
971,146723925,-129.500702,20.503857,-168.094849,0.447665,0.020518,-0.530229,9.254787,2.641893,2.977766
972,146740592,-129.434692,20.475136,-168.185455,0.574249,0.147518,-0.707838,6.099710,2.536766,1.993571
973,146757259,-129.416351,20.461044,-168.298889,0.601768,-0.235829,-0.458022,3.714988,2.975882,3.480990
974,146773926,-129.385666,20.440924,-168.420822,0.627268,-0.549686,-0.229800,4.632102,3.573632,3.501801
975,146790593,-129.321442,20.406679,-168.537735,0.671387,-0.600398,-0.190207,6.534909,3.899720,2.662319
976,146807260,-129.255936,20.357710,-168.670135,0.732312,-0.573839,-0.302982,6.925516,5.139119,2.523985
977,146823927,-129.199478,20.318064,-168.854767,0.631068,-0.645583,-0.257486,7.463974,7.066413,4.806488
978,146840594,-129.172394,20.287401,-169.087952,0.535606,-0.717878,-0.147477,6.705466,8.852951,6.946763
979,146857261,-129.191177,20.275291,-169.352524,0.616994,-0.510103,-0.222746,4.598014,9.522097,8.926051
980,146873928,-129.235306,20.288919,-169.645538,0.764119,-0.313620,-0.275949,3.667338,9.783477,11.141002
981,146890595,-129.203354,20.310217,-169.965775,0.873697,-0.105040,-0.303601,8.804100,10.680374,12.464967
982,146907262,-129.077896,20.318758,-170.306793,0.936386,0.304525,-0.332619,14.852209,12.086942,12.587402
983,146923929,-128.919876,20.323900,-170.670395,1.007769,0.535342,-0.249201,17.280025,13.232492,13.188464
984,146940596,-128.875488,20.337696,-171.031158,0.967340,0.854311,-0.098547,10.409562,12.808592,13.460270
985,146957263,-129.100693,20.377983,-171.383026,0.987829,0.792763,0.249352,-5.936032,11.393575,14.397615
986,146973930,-129.498215,20.449043,-171.760956,1.115835,0.301518,0.732032,-15.708204,11.280071,16.822121
987,146990597,-129.905762,20.518360,-172.182861,1.351475,-0.160545,0.969882,-15.357467,13.126524,18.409554
988,147007264,-130.236603,20.575562,-172.689102,1.577640,-0.627175,0.960987,-8.951024,17.099567,20.994568
989,147023931,-130.566620,20.644346,-173.265884,1.794705,-0.748748,0.785683,-7.383232,19.540504,24.192978
990,147040598,-131.054504,20.745457,-173.882492,1.829915,-0.602224,0.715824,-15.962155,19.784452,27.263424
991,147057265,-131.739487,20.877665,-174.574310,1.990151,-0.552211,0.787217,-26.115223,21.423460,31.658510
992,147073932,-132.508636,21.016415,-175.380219,2.133399,-0.722660,0.962298,-28.626917,25.477812,36.508591
993,147090599,-133.265411,21.140989,-176.281525,2.412794,-0.633910,0.745817,-25.721336,29.463760,39.860870
994,147107266,-134.040329,21.261457,-177.275040,2.793800,-0.426537,0.487901,-24.699236,32.809734,43.632835
995,147123933,-134.870682,21.373905,-178.384232,3.239020,-0.415307,0.147051,-25.385651,37.128326,48.270557
996,147140600,-135.680939,21.452709,-179.644333,3.934992,-0.590972,-0.158397,-20.766685,43.782455,53.366711
997,147157267,-136.382233,21.435493,178.929855,4.682559,-0.603847,-0.289757,-10.550524,53.650867,56.614513
998,147173934,-137.069901,21.296078,177.331192,4.689316,-0.421310,0.012668,-6.057339,64.966148,59.314087
999,147190601,-138.095795,21.028902,175.578583,4.061265,-0.743071,0.164388,-23.321096,75.637421,61.584198
1000,147207268,-139.606766,20.636765,173.750824,3.862688,-0.546235,0.337648,-51.376499,82.832001,61.692059
1001,147223935,-141.290543,20.091591,171.795471,3.634089,-0.825693,0.805138,-59.905884,92.947289,63.969681
1002,147240602,-142.735764,19.362696,169.744690,3.875091,-1.394903,0.723611,-44.875626,103.459045,64.362152
1003,147257269,-143.862778,18.474604,167.723404,4.046628,-1.878638,0.198903,-27.983776,109.003227,60.128490
1004,147273936,-144.877838,17.506451,165.922714,3.737702,-1.848030,0.206101,-27.212627,104.811546,49.670574
1005,147290603,-146.131989,16.523851,164.472458,2.740762,-1.839580,0.155641,-49.455833,93.468231,35.174889
1006,147307270,-147.762817,15.533715,163.303513,1.984358,-1.966743,-0.145978,-78.148178,84.332626,24.090279
1007,147323937,-149.748566,14.580255,162.126297,1.112769,-3.057430,-0.705577,-100.456291,82.077461,28.646284
1008,147340604,-151.813171,13.652061,160.872452,0.278266,-4.353857,-0.657241,-105.190102,82.022690,36.506859
1009,147357271,-153.652191,12.702209,159.664093,-0.149443,-4.086136,-0.502201,-93.483772,80.813683,36.675594
1010,147373938,-155.241913,11.679729,158.590714,-0.071641,-2.669242,-0.181573,-81.462776,80.327415,30.386963
1011,147390605,-156.748383,10.567878,157.649490,0.052465,-1.672312,-0.204365,-79.179436,81.314880,23.549986
1012,147407272,-158.392883,9.436018,156.806366,0.184058,-1.314952,-0.834167,-89.568642,79.617653,20.218458
1013,147423939,-160.142334,8.349198,155.998672,-0.119957,-2.377089,-1.220456,-97.160538,75.776718,21.789160
1014,147440606,-161.786621,7.267487,155.305710,-0.234753,-2.825729,-1.261050,-92.699829,72.635033,17.882959
1015,147457273,-163.200348,6.125273,154.742020,-0.273863,-2.207601,-0.792299,-80.578232,73.315109,11.546021
1016,147473940,-164.396667,4.848147,154.268112,-0.409900,-1.595633,-0.695200,-68.766365,79.336327,5.940629
1017,147490607,-165.573044,3.502669,153.943054,-0.200574,-1.102486,-1.414369,-68.874641,80.866753,-1.975535
1018,147507274,-166.982864,2.197171,153.799805,0.263256,-0.550129,-2.061530,-83.877197,75.987640,-10.076713
1019,147523941,-168.652542,0.948369,153.797577,0.119515,-0.765498,-2.382124,-99.894432,71.128174,-15.504163
1020,147540608,-170.377487,-0.281207,153.936081,-0.385382,-1.192802,-2.438461,-103.266144,68.890099,-21.404207
1021,147557275,-171.900803,-1.558125,154.229889,-1.003252,-1.349585,-2.820126,-90.847275,70.844215,-29.012899
1022,147573942,-173.144577,-2.896599,154.688553,-1.278389,-1.275074,-3.775265,-73.301582,73.900574,-37.497688
1023,147590609,-174.364548,-4.245671,155.371033,-0.862751,-0.187775,-4.065522,-70.404488,73.865784,-49.204685
1024,147607276,-175.782654,-5.563239,156.256073,-0.654693,0.954654,-3.964797,-80.312714,72.060425,-59.262589
1025,147623943,-177.486969,-6.879917,157.358459,-0.689833,1.786017,-3.929412,-94.860001,72.838272,-70.027184
1026,147640610,-179.189880,-8.266484,158.714523,-1.187416,2.156313,-3.509337,-91.223213,78.642693,-82.773415
1027,147657277,179.196136,-9.691067,160.354416,-2.665337,2.382506,-3.425080,-81.258690,83.276321,-96.925552
1028,147673944,177.323380,-10.965977,162.299026,-3.572725,3.152243,-2.692455,-91.225029,77.731323,-112.135216
1029,147690611,174.924561,-11.993073,164.476624,-4.093971,3.920959,-1.571461,-117.704147,67.902260,-123.298714
1030,147707278,172.183701,-12.797700,166.604721,-5.725579,3.123058,-0.589528,-136.822449,59.708477,-118.208900
1031,147723945,169.651550,-13.434872,168.473068,-7.391329,1.176647,-0.272310,-126.278999,52.687778,-101.474632
1032,147740612,167.583603,-13.876122,170.033096,-6.611438,0.873492,0.077196,-101.784729,41.569405,-83.642662
1033,147757279,166.156326,-14.253671,171.183960,-5.384808,0.763032,0.412310,-68.672493,34.906864,-59.785786
1034,147773946,165.446182,-14.677546,171.913208,-4.342325,1.615619,1.457027,-31.501366,32.652046,-34.544254
1035,147790613,165.349792,-15.158892,172.172302,-4.019614,2.222460,2.312630,-1.601990,29.317549,-6.969354
1036,147807280,165.623810,-15.563890,172.106781,-3.967216,2.234163,1.772462,14.903665,19.626223,12.246533
1037,147823947,165.939072,-15.750195,171.757858,-3.751166,2.392272,1.524940,12.888018,3.014539,24.389059
1038,147840614,166.066696,-15.835152,171.120239,-3.001269,3.482527,1.715070,-3.115149,-6.829049,39.010742
1039,147857281,166.164261,-16.016825,170.155838,-2.289777,4.129588,2.234632,-9.800585,-5.260347,56.892796
1040,147873948,166.298889,-16.219961,169.104782,-1.866809,4.297058,2.632833,-9.187274,-5.085062,62.003155
1041,147890615,166.395233,-16.276340,168.145645,-2.030470,3.814257,2.722896,-10.059618,-12.271480,54.748917
1042,147907282,166.442047,-16.137337,167.285828,-2.055758,3.420554,2.454425,-11.311625,-22.270842,46.453812
1043,147923949,166.635162,-15.898792,166.398697,-1.997403,2.977662,1.660704,-2.807015,-28.373724,46.680744
1044,147940616,167.138290,-15.677285,165.414062,-1.472939,2.849696,1.807537,14.418729,-28.399103,52.607742
1045,147957283,167.901917,-15.448787,164.281616,-1.922138,2.838883,2.154778,27.903002,-30.099056,61.199459
1046,147973950,168.540680,-15.010476,163.042389,-2.315686,2.914254,1.998287,19.121565,-42.970932,65.112167
1047,147990617,168.876068,-14.304080,161.701141,-2.923235,2.597626,1.797381,0.098426,-59.403152,68.294640
1048,148007284,169.102509,-13.399997,160.252930,-3.302424,2.222248,1.565257,-6.871463,-71.972488,72.692513
1049,148023951,169.549866,-12.377539,158.704529,-3.227839,2.133046,0.862793,6.467228,-79.691269,77.867271
1050,148040618,170.423065,-11.255323,157.089005,-3.043369,2.033901,-0.059436,32.892483,-85.454590,81.952553
1051,148057285,171.691650,-10.039311,155.507538,-2.956413,2.020705,-1.022609,58.931206,-89.238792,81.001320
1052,148073952,173.125153,-8.726813,154.056992,-2.581993,2.361582,-1.457662,72.168716,-92.091866,74.928764
1053,148090619,174.426254,-7.348999,152.752548,-2.123561,3.008142,-1.292199,67.474541,-93.290092,68.291351
1054,148107286,175.451035,-5.952358,151.536362,-2.090451,3.053151,-0.915404,53.394623,-92.588860,65.011192
1055,148123953,176.249008,-4.585847,150.413925,-2.040956,2.725488,-1.121454,42.059826,-89.368805,61.153992
1056,148140620,176.972717,-3.248406,149.386200,-1.868747,2.114643,-1.330887,39.579967,-86.499641,56.864395
1057,148157287,177.812668,-1.922823,148.483887,-1.815888,1.668421,-1.596940,48.325096,-84.684105,50.602631
1058,148173954,178.901642,-0.545614,147.734299,-1.562158,1.488368,-1.736699,64.737671,-86.672348,42.767090
1059,148190621,-179.733490,0.936253,147.147720,-1.230913,1.434157,-2.100898,82.377449,-91.961914,34.737503
1060,148207288,-178.275589,2.538025,146.678970,-1.136254,1.210792,-2.603319,88.689575,-98.410172,29.972746
1061,148223955,-176.853485,4.167861,146.294220,-1.440144,0.727955,-2.352123,87.038712,-99.537697,27.372246
1062,148240622,-175.660522,5.742910,146.008453,-1.547374,1.139711,-2.357838,73.417717,-96.009155,23.401966
1063,148257289,-174.769180,7.289372,145.828079,-1.409000,1.877676,-2.159687,55.068356,-94.398788,18.646015
1064,148273956,-174.206253,8.912382,145.760590,-1.342507,2.338095,-2.382410,34.707054,-99.385880,13.538213
1065,148290623,-173.741211,10.678456,145.812607,-1.441960,1.261911,-2.742882,27.736542,-108.553261,8.251453
1066,148307290,-173.246536,12.531246,146.015121,-1.130262,-0.258517,-2.959239,27.599056,-114.659271,0.957699
1067,148323957,-172.583191,14.322290,146.387375,-0.988826,-1.314489,-2.653316,34.970978,-112.183334,-8.119112
1068,148340624,-171.778061,15.988910,146.945038,-0.781987,-1.092760,-2.509654,39.907104,-106.322105,-18.206573
1069,148357291,-170.942017,17.562418,147.685577,-0.141781,-0.495586,-2.094886,37.680016,-102.587814,-27.687462
1070,148373958,-170.005203,19.010832,148.540924,0.035032,-1.040486,-1.527492,40.447144,-96.626213,-33.484257
1071,148390625,-168.951172,20.321718,149.568039,0.650436,-1.572951,-1.511396,42.838451,-90.778221,-42.504787
1072,148407292,-167.804565,21.492369,150.730118,1.358315,-2.099105,-1.580550,44.250198,-84.762085,-49.459133
1073,148423959,-166.517136,22.497919,151.989166,1.000132,-2.258270,-1.349695,49.285866,-77.217804,-54.691563
1074,148440626,-165.111404,23.375599,153.351898,0.476327,-2.017098,-0.712571,52.807369,-72.324409,-59.901825
1075,148457293,-163.674194,24.183937,154.857880,0.423551,-2.636604,-0.878671,50.122566,-71.765007,-66.389862
1076,148473960,-162.296875,25.021107,156.658630,1.649624,-3.410378,-1.440015,37.975269,-79.570625,-79.033478
1077,148490627,-160.908188,25.905476,158.757416,1.913815,-3.828851,-1.846410,29.490088,-89.007881,-90.931168
1078,148507294,-159.389999,26.686899,161.076080,1.807164,-3.695349,-1.596706,29.760586,-89.206444,-101.180603
1079,148523961,-157.697861,27.262678,163.469986,1.510101,-2.785022,-0.978474,36.667862,-81.712662,-106.284637
1080,148540628,-156.058578,27.641920,165.882080,2.408793,-1.690030,-0.821513,31.925053,-74.082985,-108.959877
1081,148557295,-154.537857,27.903072,168.313446,3.197728,-1.520726,-0.627495,23.557854,-70.884644,-110.499123
1082,148573962,-152.978973,28.066856,170.828064,3.423947,-2.389595,-0.163113,23.023487,-70.416359,-114.945450
1083,148590629,-151.210297,28.021093,173.404770,3.744967,-2.510219,0.346440,33.715435,-64.108406,-121.658638
1084,148607296,-149.299515,27.748314,175.844482,3.834233,-1.481027,0.992209,46.457699,-52.639084,-120.251396
1085,148623963,-147.443832,27.284277,177.921219,3.924444,-1.043095,1.517272,54.047565,-36.881542,-108.493004
1086,148640630,-145.884735,26.753302,179.668854,4.477352,-0.426762,1.796366,46.185299,-27.337816,-95.358467
1087,148657297,-144.728073,26.253637,-178.841507,4.753010,0.059903,2.111614,29.789043,-23.475981,-82.644234
1088,148673964,-143.834869,25.816690,-177.654053,4.685034,-0.001918,2.285204,22.598032,-18.668346,-67.109093
1089,148690631,-143.108902,25.482716,-176.761185,4.692855,-0.265254,2.038826,20.647467,-15.203742,-50.571255
1090,148707298,-142.513351,25.265594,-176.129257,4.183056,-0.422852,2.000760,19.758778,-12.870169,-35.016216
1091,148723965,-142.055130,25.142286,-175.705078,3.566687,-0.395890,1.700226,16.925907,-10.761390,-22.602871
1092,148740632,-141.867752,25.119255,-175.439072,3.154066,-0.070855,1.310622,4.733404,-10.327449,-12.097723
1093,148757299,-141.943817,25.197075,-175.311508,2.742485,0.112977,0.915403,-7.549168,-10.448578,-2.445604
1094,148773966,-142.108963,25.352440,-175.319046,2.274040,-0.008077,0.644340,-9.449889,-9.587123,6.176130
1095,148790633,-142.170349,25.552803,-175.403488,1.865005,-0.358013,0.321643,-1.239361,-9.167190,11.103902
1096,148807300,-142.107422,25.789785,-175.478012,1.680493,-0.527300,-0.154562,5.979156,-11.227222,12.021045
1097,148823967,-141.989731,26.048779,-175.513596,1.433011,-0.300508,-0.588723,8.256846,-13.540324,11.178695
1098,148840634,-141.903519,26.324371,-175.530533,1.007007,-0.317182,-0.781682,5.881228,-14.923772,11.016184
1099,148857301,-141.832886,26.588373,-175.544342,0.675429,-0.657516,-0.884311,4.868205,-14.461662,10.471348
1100,148873968,-141.690125,26.794939,-175.577011,0.588831,-0.785236,-1.073936,9.703274,-11.110417,9.149846
1101,148890635,-141.395767,26.933649,-175.669601,0.378399,-0.870220,-1.182130,20.426348,-5.892123,9.162786
1102,148907302,-141.040161,27.029398,-175.822006,0.300382,-0.972895,-1.126115,25.735790,-1.830685,10.056026
1103,148923969,-140.750534,27.093292,-175.960464,0.348196,-0.875057,-1.159778,21.405233,-0.764041,8.267634
1104,148940636,-140.508972,27.125000,-176.084229,0.223116,-0.665212,-1.003162,18.119900,0.266404,6.421451
1105,148957303,-140.207367,27.094627,-176.229767,0.120472,-0.620758,-0.893280,22.317890,3.908448,4.930230
1106,148973970,-139.915085,27.036625,-176.344772,0.393885,-0.332608,-0.887030,20.916216,4.159669,2.587034
1107,148990637,-139.683823,26.969408,-176.425720,0.289805,-0.299029,-0.655802,16.320999,3.418627,0.809356
1108,149007304,-139.441162,26.858971,-176.498138,0.294580,-0.347342,-0.516881,16.765152,5.103714,-1.238593
1109,149023971,-139.130676,26.685877,-176.591049,0.242752,-0.155003,-0.367105,21.377750,8.665312,-2.893767
1110,149040638,-138.832687,26.459745,-176.704102,0.299543,0.163629,-0.272622,21.151237,11.765059,-4.218280
1111,149057305,-138.605255,26.223633,-176.829132,0.371393,0.176622,-0.144848,17.213945,12.628701,-4.186979
1112,149073972,-138.447830,25.997944,-176.958344,0.439044,0.018349,-0.052028,13.098522,12.301441,-3.645319
1113,149090639,-138.323303,25.791710,-177.101868,0.418582,-0.207555,0.080561,11.471292,11.941991,-2.321653
1114,149107306,-138.201782,25.596531,-177.265091,0.329457,-0.250837,0.219282,11.777341,12.158739,-1.108096
1115,149123973,-138.100922,25.409344,-177.448364,0.410625,-0.035144,0.166189,11.024915,12.535156,0.003989
1116,149140640,-138.022156,25.244026,-177.664658,0.484331,0.103867,0.090657,10.518270,12.764787,2.200357
1117,149157307,-137.974823,25.102175,-177.898972,0.560905,0.081655,0.021472,9.059802,12.385983,3.860074
1118,149173974,-137.972916,24.984085,-178.120178,0.662693,-0.095074,-0.089293,5.973583,10.861397,4.288112
1119,149190641,-137.989883,24.878174,-178.335358,0.627612,-0.254858,-0.165065,4.665669,10.104875,4.540769
1120,149207308,-138.007034,24.757620,-178.571045,0.646704,-0.272813,-0.314055,5.149444,11.514359,4.794887
1121,149223975,-138.019608,24.607595,-178.849670,0.504103,-0.184400,-0.336804,6.468448,14.404858,5.365219
1122,149240642,-138.057312,24.422073,-179.174179,0.444184,-0.098846,-0.279521,6.057277,17.675262,5.825993
1123,149257309,-138.157272,24.214493,-179.524750,0.653996,-0.110566,-0.244774,2.906451,19.624794,6.045996
