sep=,
DeviceTag:,DOT5
FirmwareVersion:,3.0.0
AppVersion:,2023.6.0
SyncStatus:,Synced
OutputRate:,60Hz
FilterProfile:,Dynamic
Measurement Mode:,Custom modes - custom mode1
StartTime: ,2026-06-01_12:16:11_841 GMT+2
© Movella Technologies B. V. 2005-2026

PacketCounter,SampleTimeFine,Euler_X,Euler_Y,Euler_Z,FreeAcc_X,FreeAcc_Y,FreeAcc_Z,Gyr_X,Gyr_Y,Gyr_Z
1,993073416,64.647598,33.424911,170.954803,-0.761744,0.880452,-0.693830,-22.587500,-3.084608,-6.986454
2,993090083,64.223099,33.504593,170.940399,-0.883913,0.804504,-0.663194,-24.730410,-1.074045,-4.394906
3,993106750,63.738979,33.572815,170.972931,-1.056609,0.596329,-0.512312,-29.858446,0.770925,-2.737725
4,993123417,63.249744,33.642139,171.055710,-1.086383,0.534685,-0.411602,-31.836895,3.075014,-1.649694
5,993140084,62.769711,33.715065,171.209183,-1.236570,0.535022,-0.109236,-33.641052,6.331864,-0.196361
6,993156751,62.304829,33.804768,171.437866,-1.152524,0.602892,0.170182,-35.249908,10.122461,0.706664
7,993173418,62.007561,33.915886,171.749924,-1.039069,0.526181,0.414986,-27.998592,14.382957,1.587705
8,993190085,61.926350,34.040478,172.123901,-0.782341,0.298053,0.559093,-17.143551,17.460236,2.365536
9,993206752,62.034081,34.171883,172.511276,-0.575349,0.079963,0.549717,-6.298734,18.215818,2.298864
10,993223419,62.241898,34.296993,172.856628,-0.458872,-0.023796,0.607960,1.081081,16.178143,1.586779
11,993240086,62.508991,34.416969,173.135300,-0.317006,0.170344,0.347563,6.860744,13.094189,0.240369
12,993256753,62.850143,34.529606,173.355560,-0.190226,0.335162,0.149092,13.260429,10.307232,-0.786900
13,993273420,63.243057,34.634796,173.509735,-0.005317,0.526374,-0.059056,18.593035,7.175774,-1.959119
14,993290087,63.621151,34.724758,173.590179,0.090808,0.525155,-0.159534,20.212553,3.490126,-2.836444
15,993306754,63.862671,34.813896,173.599442,0.090588,0.402465,-0.220378,14.448668,0.300034,-4.378840
16,993323421,63.953377,34.862263,173.554001,0.378969,0.251888,-0.338371,7.273528,-3.206749,-3.375434
17,993340088,63.815258,34.878319,173.438034,0.153166,-0.138527,0.014408,-4.031401,-7.177448,-3.163092
18,993356755,63.427658,34.861198,173.248581,0.308888,-0.159153,0.079660,-16.482512,-11.285587,-3.007460
19,993373422,62.948513,34.840614,173.021027,0.180227,-0.283923,0.434570,-20.670851,-13.030246,-3.735531
20,993390089,62.487385,34.862850,172.758560,-0.084100,-0.387179,0.921758,-18.393490,-13.347418,-6.892301
21,993406756,62.055588,34.994999,172.445877,-0.593774,-0.701352,1.579860,-14.893469,-12.399798,-13.958194
22,993423423,61.548862,35.295033,172.020065,-0.932648,-0.985059,2.029559,-15.424445,-12.377394,-25.521059
23,993440090,60.988869,35.799911,171.448196,-0.672936,-0.784902,1.596836,-13.386003,-12.388485,-39.767559
24,993456757,60.579552,36.500568,170.765320,-0.140936,-0.392606,0.710511,-0.125055,-10.824986,-52.625347
25,993473424,60.527260,37.353832,170.021820,0.409728,0.054538,0.042670,23.926563,-8.353315,-61.897552
26,993490091,60.899990,38.289536,169.253235,1.161709,0.451949,-0.519019,50.902981,-6.776431,-66.569832
27,993506758,61.614769,39.235935,168.490860,1.914214,0.741098,-0.536043,71.782806,-6.434590,-66.723877
28,993523425,62.364868,40.155075,167.671463,2.456271,0.841360,-0.086226,76.668449,-9.970235,-66.237686
29,993540092,62.681168,41.073555,166.697128,2.929997,0.302979,0.871622,57.298103,-16.416929,-69.145439
30,993556759,62.108509,42.025204,165.425385,3.688846,-0.303965,1.558590,16.520237,-26.620649,-76.833069
31,993573426,60.480820,43.076378,163.860016,5.096911,-0.904330,1.024478,-33.871124,-32.868996,-88.313866
32,993590093,58.141487,44.303226,161.934082,6.365056,-1.562297,-0.000591,-60.254318,-36.766148,-105.698593
33,993606760,55.442120,45.687988,159.571533,6.967538,-2.167911,-0.627398,-61.441502,-40.854130,-124.149330
34,993623427,52.762993,47.072182,156.866776,7.148868,-2.734219,-0.434170,-42.968529,-44.488689,-132.634033
35,993640094,50.268887,48.293415,153.935913,6.742825,-3.140938,0.189445,-19.323952,-49.572906,-130.728668
36,993656761,47.922794,49.217224,150.888245,5.792470,-3.699656,1.107485,-2.981954,-57.323471,-120.517952
37,993673428,45.623257,49.715744,147.839508,4.719498,-3.942456,1.739434,1.338547,-68.639183,-102.891609
38,993690095,43.437920,49.715946,144.934219,4.132096,-3.573685,1.994360,2.137651,-81.536583,-80.035278
39,993706762,41.580151,49.245174,142.309326,3.580048,-2.968870,1.688906,8.530335,-92.468895,-56.019424
40,993723429,40.134964,48.321766,140.096268,2.858514,-2.886755,0.889201,13.444728,-101.652328,-29.599709
41,993740096,38.933483,46.912247,138.355057,1.884595,-3.128834,0.558844,5.354055,-112.569885,-0.149431
42,993756763,37.901627,45.029320,137.061111,1.039948,-2.919760,0.209074,-5.818208,-124.574036,28.259636
43,993773430,37.133030,42.745235,136.149063,-0.049359,-2.141675,-0.180934,-7.909457,-135.251953,52.517979
44,993790097,36.580265,40.036030,135.556885,-0.731955,-1.723845,-0.172538,-9.406117,-148.592819,76.513176
45,993806764,35.805264,36.807705,135.194016,-1.525155,-1.305190,-0.049259,-32.697964,-168.938354,100.954071
46,993823431,34.533146,33.094933,135.059265,-2.361932,-0.535145,-0.087690,-71.413414,-188.466660,123.231773
47,993840098,32.727562,28.936907,135.239716,-2.608768,0.624412,-1.091939,-113.615395,-205.140991,146.234528
48,993856765,30.493015,24.429493,135.809296,-3.194153,2.194341,-2.222226,-149.103149,-216.872162,168.096848
49,993873432,27.897833,19.700056,136.828766,-3.625220,3.763533,-2.706692,-178.354782,-222.618790,188.247360
50,993890099,25.036934,14.911604,138.372391,-4.651852,4.977939,-2.374353,-198.853714,-220.324371,207.547897
51,993906766,21.889988,10.200085,140.524200,-6.322431,5.534545,-1.369466,-216.513428,-211.657547,228.498611
52,993923433,18.370995,5.818082,143.323700,-8.114874,6.552158,0.211250,-234.155533,-192.101639,246.994156
53,993940100,14.578738,2.059809,146.589355,-9.018889,7.337686,1.121503,-240.607208,-163.260406,251.721710
54,993956767,10.993116,-0.826728,150.080322,-9.865486,7.340063,2.312980,-217.031525,-124.978294,242.874039
55,993973434,8.182883,-2.632026,153.529343,-10.131494,6.347518,2.609686,-162.054703,-74.766937,222.258362
56,993990101,7.117128,-3.291128,156.548096,-9.127151,4.996869,0.415394,-54.320499,-17.522074,184.771210
57,994006768,8.154969,-3.092136,158.779053,-6.844853,4.442354,-2.892241,69.968399,27.197884,131.106323
58,994023435,10.882607,-2.393023,160.111801,-5.202743,2.488353,-4.000219,167.732834,52.202377,72.058792
59,994040102,14.488033,-1.417418,160.443283,-4.836845,-0.746056,-2.248304,217.240356,59.112671,6.745804
60,994056769,17.921446,-0.322056,159.859543,-4.754239,-0.886962,0.139392,205.718277,50.980637,-51.777142
61,994073436,20.725555,0.893068,158.569305,-5.169541,0.345908,1.114856,168.864014,40.827606,-96.994156
62,994090103,22.736671,2.241594,156.784515,-5.731623,1.028196,0.902905,123.816170,33.173073,-129.218750
63,994106770,23.990028,3.772719,154.642349,-6.509950,1.257515,0.698880,82.156761,31.087845,-154.085983
64,994123437,24.702929,5.617993,152.224411,-7.712377,2.284346,0.520280,54.852562,38.921932,-177.206726
65,994140104,25.204714,7.886126,149.613220,-8.918886,3.804108,-0.070001,48.716774,55.409557,-198.320084
66,994156771,25.727903,10.646950,146.882477,-9.396884,4.751182,-0.131970,57.946766,77.698326,-217.080444
67,994173438,26.135166,13.796912,144.219406,-8.914081,4.926809,0.301925,58.420502,99.366272,-222.971146
68,994190105,26.039085,17.191229,141.707855,-8.322634,4.678074,0.641882,34.649372,116.755272,-219.883179
69,994206772,25.295790,20.752670,139.361267,-6.803144,4.491049,0.151630,1.337157,132.646042,-212.485703
70,994223439,24.224209,24.478539,137.207687,-4.980506,4.355341,-0.841066,-14.443414,150.776810,-201.881790
71,994240106,23.278124,28.349873,135.361145,-4.302218,4.139936,-1.584327,-7.326566,170.391769,-184.331039
72,994256773,22.594257,32.294003,133.924240,-3.835543,3.060209,-0.881066,2.634644,186.701736,-160.729904
73,994273440,21.873110,36.225204,132.901489,-2.442883,1.597990,0.422922,-8.584758,196.924088,-136.178818
74,994290107,21.023260,40.074596,132.208237,-1.921915,0.272033,0.518617,-25.156717,200.798615,-114.888329
75,994306774,20.052513,43.766037,131.901047,-2.083004,-0.732106,-0.112933,-45.786953,200.394531,-90.539848
76,994323441,19.077831,47.258686,132.033981,-1.510552,-1.610291,-0.812261,-64.029358,197.134933,-64.903053
77,994340108,18.554209,50.507004,132.755188,0.496656,-2.783025,-1.034993,-63.882309,191.466766,-35.916538
78,994356775,18.871155,53.420479,134.221329,1.535588,-4.165229,-0.758941,-50.141476,180.750946,-4.730408
79,994373442,19.817278,55.919060,136.439774,1.600851,-5.608006,0.064089,-51.695370,164.722961,22.992537
80,994390109,20.928082,57.950993,139.153824,2.855196,-6.626978,0.824023,-69.684174,142.982132,40.871437
81,994406776,22.257740,59.465675,142.277237,5.510357,-6.870914,0.880774,-80.217140,118.073730,57.094700
82,994423443,24.379349,60.378853,145.952728,10.276330,-5.063419,-0.487434,-63.386108,91.800354,79.846741
83,994440110,28.085945,60.634624,150.499588,16.700584,-0.708545,-3.315407,-14.912068,70.856628,113.736031
84,994456777,34.063419,60.033340,156.229553,15.716154,-0.866732,-5.197549,60.049240,54.656780,164.390366
85,994473444,40.483604,58.557575,162.117661,6.150897,-6.358608,-1.204509,81.574074,36.533092,197.190872
86,994490111,44.186066,56.689140,166.537094,0.898861,-7.905105,3.454975,-1.614823,10.465627,180.526215
87,994506778,45.088089,54.981869,169.393372,3.501405,-3.843686,3.244849,-87.459938,-7.599793,140.569595
88,994523445,45.528465,53.657368,171.561096,6.724814,0.456499,0.859283,-79.001770,-4.306016,109.980949
89,994540112,46.728527,52.830788,173.295303,7.044005,1.112245,0.094924,-11.122055,8.153034,79.061569
90,994556779,48.418083,52.549141,174.414719,5.741107,-0.796669,1.767035,48.202824,16.272917,40.114330
91,994573446,49.728580,52.804897,174.589294,4.447432,-2.132715,3.665792,70.552086,12.461939,-7.246784
92,994590113,50.318573,53.451080,173.918930,4.283154,-1.698325,4.054567,67.826172,4.012996,-45.021618
93,994606780,50.381226,54.340950,172.608597,4.715262,-0.428256,3.288550,67.525208,-4.013619,-70.467659
94,994623447,50.165874,55.395176,170.827271,4.738421,0.406043,2.652312,74.736870,-9.301741,-87.741226
95,994640114,49.647884,56.576557,168.683411,4.637866,0.159772,2.531288,75.793480,-11.828853,-100.339478
96,994656781,48.556503,57.797108,166.122498,4.476036,-0.702070,2.557009,63.912846,-17.433537,-109.625252
97,994673448,46.754894,58.959068,163.067322,4.837656,-1.229887,2.404526,48.259953,-26.526590,-116.008713
98,994690115,44.334820,59.959930,159.513336,5.227459,-1.492212,2.375719,38.714752,-37.744877,-118.475983
99,994706782,41.462379,60.735996,155.507278,5.295881,-2.048671,2.559201,36.807281,-49.297340,-118.516197
100,994723449,38.320080,61.192158,151.159744,4.943338,-3.005940,2.600292,39.794849,-62.661003,-114.391640
101,994740116,35.061310,61.251907,146.628632,4.323267,-3.774139,2.341820,43.026455,-77.787766,-106.785744
102,994756783,31.907871,60.846954,142.184036,3.758278,-4.050660,1.899881,44.405231,-93.943771,-93.951080
103,994773450,29.173265,59.963783,138.146408,3.346002,-3.749434,1.546140,46.831776,-108.900131,-75.815788
104,994790117,27.164494,58.653416,134.827988,2.827468,-3.462864,1.080233,50.941360,-119.762932,-52.174465
105,994806784,25.943829,56.942390,132.355759,2.221660,-3.349462,0.449299,52.519077,-129.672089,-24.508419
106,994823451,25.464115,54.840767,130.769836,1.529780,-2.925067,-0.321735,50.239952,-139.284470,6.926190
107,994840118,25.676538,52.377853,130.028931,0.990506,-2.385369,-1.350950,48.759033,-147.221588,40.313931
108,994856785,26.403488,49.573608,130.007462,0.296732,-1.887452,-2.264369,44.835457,-154.074280,73.460373
109,994873452,27.376350,46.434475,130.536835,-0.967639,-1.310821,-2.980517,34.973736,-160.918304,104.468102
110,994890119,28.155058,42.951351,131.466949,-1.892447,-0.780032,-2.839327,7.673517,-168.985138,132.792084
111,994906786,28.542524,39.152508,132.726425,-2.293526,0.369495,-2.965481,-26.182028,-176.072784,158.707687
112,994923453,28.485657,35.089504,134.360413,-2.733876,1.517255,-3.399282,-62.376457,-179.417999,185.386429
113,994940120,27.927361,30.783106,136.353348,-3.337056,2.564065,-4.065957,-98.297913,-182.778656,210.884827
114,994956787,26.814487,26.377327,138.699539,-4.706859,4.287446,-3.736654,-133.881897,-180.415070,231.629608
115,994973454,25.170952,22.065880,141.460846,-5.774933,6.204626,-2.360281,-166.328781,-168.774017,249.494705
116,994990121,23.098837,17.954683,144.654282,-6.762594,6.979142,-1.728693,-189.611511,-153.933243,265.468323
117,995006788,21.074333,14.005689,148.117996,-8.065214,6.686172,-2.501967,-178.396133,-146.831085,274.511749
118,995023455,20.015505,10.264481,151.588943,-9.768501,6.904654,-2.954472,-107.053818,-141.111145,269.688171
119,995040122,20.034348,6.926222,155.010651,-10.447318,7.089103,-0.833990,-29.332050,-121.016678,259.539337
120,995056789,20.348875,4.291296,158.070496,-10.377053,4.671935,1.788891,1.154034,-87.646439,226.260635
121,995073456,20.272785,2.422793,160.326050,-8.684906,1.330042,3.147951,-12.250189,-60.570404,165.809540
122,995090123,19.876558,1.345587,161.626083,-6.323987,-0.583074,3.165522,-26.100605,-36.261307,95.595757
123,995106790,19.611517,1.029186,161.778915,-3.601313,-0.043798,0.934676,-15.863536,-17.071730,15.228040
124,995123457,19.831858,1.199091,161.039047,-1.905779,3.066096,-0.499835,14.306018,-7.672026,-45.035591
125,995140124,20.885630,1.683252,160.038635,-2.400671,3.652386,-0.029561,64.958130,4.075034,-66.186996
126,995156791,22.276215,2.285361,159.155960,-2.935035,2.377890,0.232001,85.492760,11.850426,-62.342716
127,995173458,23.285908,2.914255,158.310883,-2.770632,1.184446,0.243628,63.105579,12.908319,-61.160507
128,995190125,23.691637,3.482415,157.478622,-2.173387,1.384274,0.451063,27.350037,9.132200,-59.166912
129,995206792,23.690086,4.042621,156.589615,-1.958830,2.142779,0.579653,3.624971,7.138647,-62.104458
130,995223459,23.765852,4.788048,155.531586,-3.135027,2.839004,0.502667,9.649565,13.227734,-75.804863
131,995240126,24.105909,5.842460,154.228043,-4.877672,2.805837,0.878122,27.859730,23.990366,-96.717773
132,995256793,24.631937,7.295230,152.654846,-6.644299,2.523945,1.683616,42.560528,38.481037,-121.268600
133,995273460,24.942297,9.187554,150.801224,-8.113428,2.812727,1.825562,34.750977,54.718689,-147.424667
134,995290127,24.852928,11.581318,148.596909,-9.978888,3.672366,0.831506,18.651531,73.304489,-178.382492
135,995306794,24.420670,14.500065,145.963531,-11.406130,5.190437,0.381467,9.876338,92.822609,-212.851776
136,995323461,23.820404,17.884504,143.115967,-11.062168,6.111665,-0.033480,11.771316,116.105865,-232.694962
137,995340128,23.077482,21.574499,140.236862,-8.462490,4.802094,-0.049762,13.864652,136.250351,-237.265228
138,995356795,22.068529,25.350716,137.478958,-6.409254,2.917437,-0.109761,5.456635,148.808029,-227.147598
139,995373462,21.005180,29.028795,134.998352,-5.375693,1.828524,-0.910123,4.294866,154.554077,-204.191559
140,995390129,19.860996,32.525681,132.855682,-4.330557,1.452142,-1.252885,-2.803283,155.943130,-176.804642
141,995406796,18.527363,35.796173,131.020508,-2.929113,0.591267,-1.085036,-18.140917,153.270615,-150.627960
142,995423463,17.206614,38.806412,129.593521,-1.024816,-0.880130,-0.413498,-27.325029,148.921997,-120.315529
143,995440130,16.329298,41.525169,128.846848,0.850401,-1.671187,0.009312,-23.725367,144.231094,-79.924881
144,995456797,16.044207,43.991943,128.863098,1.251948,-2.333966,0.593091,-17.753244,140.252579,-40.657642
145,995473464,16.369267,46.210690,129.625320,2.294469,-2.922605,1.239141,-12.874697,134.749146,-6.242449
146,995490131,17.339266,48.228130,131.049271,2.717696,-3.516481,1.175426,-4.481217,130.559540,20.355299
147,995506798,19.117327,50.069473,133.099121,4.280384,-3.463613,1.302762,13.686253,127.970398,41.767113
148,995523465,21.930733,51.780739,135.841827,6.190369,-3.180785,1.285755,41.094265,130.368561,61.070293
149,995540132,25.745337,53.376080,139.224319,6.856162,-3.621474,0.744310,67.750374,135.208206,74.052216
150,995556799,29.588650,54.686359,142.727158,6.818537,-5.916845,0.055586,60.587952,124.732399,72.763092
151,995573466,33.122883,55.616413,146.051987,12.426278,-3.752304,-2.346041,48.456776,104.732956,68.255074
152,995590133,37.622795,56.144646,149.781113,15.600204,-1.131611,-4.434239,84.895882,96.231926,83.965553
153,995606800,42.987694,56.140182,153.844971,8.587557,-3.601636,-1.227704,119.570618,85.377975,103.780556
154,995623467,46.123791,55.717182,156.858337,2.169029,-6.164528,3.480901,38.599384,50.669556,90.015930
155,995640134,46.235355,55.203270,158.317490,3.767137,-4.589226,3.235882,-65.213333,12.134233,56.672291
156,995656801,45.081074,54.768921,158.884155,6.892332,-1.496377,0.996835,-96.898178,-6.608974,32.351353
157,995673468,44.203102,54.521530,159.056656,7.257750,0.214275,-0.031111,-60.907009,-8.712999,14.797580
158,995690135,43.797771,54.599041,158.827744,5.396099,-0.574479,0.784502,-12.911948,-4.557847,-8.827015
159,995706802,43.263634,54.984463,157.890625,3.076443,-2.109809,2.282940,14.113809,-7.946455,-39.277008
160,995723469,42.295059,55.639946,156.228882,2.224330,-2.281532,2.920745,24.087467,-12.071495,-68.190819
161,995740136,40.879108,56.502922,153.995422,2.297596,-1.476798,2.708265,26.449312,-13.335136,-90.132637
162,995756803,39.228592,57.499477,151.353531,3.060828,-0.825944,2.070971,34.125259,-12.215271,-104.361702
163,995773470,37.492424,58.558540,148.388855,3.732877,-0.828908,1.803868,46.943317,-11.068578,-113.078171
164,995790137,35.577324,59.587963,145.066925,4.116475,-1.357176,1.910909,56.289268,-13.807862,-118.850143
165,995806804,33.305492,60.485641,141.331635,3.760034,-2.165757,2.271607,58.072071,-21.354328,-122.529022
166,995823471,30.475147,61.123383,137.176743,3.344639,-2.622639,2.495937,48.025463,-34.227207,-123.206711
167,995840138,27.201040,61.447239,132.788818,3.393370,-2.874444,2.209790,34.675751,-46.464596,-119.910034
168,995856805,23.970959,61.390713,128.578934,4.022586,-3.019766,1.672467,28.226267,-57.722279,-107.258400
169,995873472,21.332058,60.961857,124.960815,4.335989,-2.993163,1.389778,32.070972,-66.537109,-86.409187
170,995890139,19.471569,60.191643,122.122253,3.948584,-2.914294,1.118372,36.923336,-74.975632,-62.035789
171,995906806,18.387218,59.117577,120.149338,3.313138,-2.868765,0.851006,37.306007,-82.866867,-35.386036
172,995923473,18.027843,57.770573,119.076630,2.771987,-2.727721,0.442990,33.491234,-89.820496,-6.454904
173,995940140,18.251501,56.144428,118.831062,2.152428,-2.526245,-0.069127,25.977121,-97.751747,23.036161
174,995956807,18.838860,54.239201,119.307877,1.408422,-2.130006,-0.794218,11.955734,-105.719429,52.140484
175,995973474,19.797157,52.028858,120.410255,0.932893,-1.692089,-1.922071,4.778799,-114.560814,81.621178
176,995990141,21.044312,49.481754,122.000389,0.152779,-1.065792,-2.903768,1.128958,-124.691513,110.187210
177,996006808,22.352484,46.489609,123.916214,-0.220805,-0.605438,-3.668897,-6.738602,-140.883163,138.162018
178,996023475,23.573551,42.997662,126.010681,-0.684090,-0.062072,-3.972093,-15.034185,-160.601685,164.223724
179,996040142,24.403860,39.018250,128.166946,-1.280674,0.765328,-3.831677,-34.908875,-180.951965,186.567581
180,996056809,24.709496,34.649963,130.393143,-2.137870,1.913196,-3.647725,-61.565121,-196.453659,206.465179
181,996073476,24.382538,29.992352,132.796158,-3.196285,3.483647,-3.234704,-96.512138,-206.064911,227.228073
182,996090143,23.424107,25.102736,135.414017,-3.952851,4.682157,-3.357712,-129.923691,-214.250565,246.501144
183,996106810,21.991159,20.028748,138.273651,-4.522953,5.520687,-3.986530,-151.564514,-222.120956,263.997955
184,996123477,20.285540,14.842754,141.409729,-5.958810,6.589583,-3.467064,-158.437485,-227.901352,279.968536
185,996140144,18.402193,9.794542,144.802246,-8.575039,7.148997,-1.096658,-156.128723,-222.313156,288.282379
186,996156811,15.999486,5.268484,148.339417,-11.249791,6.940392,2.643373,-171.655823,-199.579712,281.604584
187,996173478,12.819654,1.641872,151.812469,-11.676519,5.188593,4.875441,-203.016266,-161.377960,255.914658
188,996190145,9.251015,-0.866093,154.910172,-9.539923,2.951176,4.171441,-215.077866,-114.518745,211.517731
189,996206812,6.462510,-2.285547,157.291412,-6.383337,2.292288,0.702297,-163.136963,-67.244453,153.396973
190,996223479,5.722672,-2.738837,158.638229,-4.338444,2.304598,-1.422817,-40.635433,-20.875145,83.424820
191,996240146,7.056508,-2.426608,158.854294,-3.026925,1.613564,-1.442677,80.823929,17.658871,11.047367
192,996256813,9.646727,-1.777429,158.184036,-2.432702,0.494721,-0.613291,154.142487,30.300814,-45.163101
193,996273480,12.702456,-1.071576,157.015457,-2.694981,-0.172016,0.769472,181.796646,25.560526,-76.728149
194,996290147,15.603988,-0.404014,155.578720,-2.940751,-0.374775,0.949029,173.170563,15.352262,-93.132133
195,996306814,17.709528,0.139954,153.958939,-2.870723,-0.697390,0.609467,126.294449,0.996625,-102.221550
196,996323481,18.722332,0.561542,152.137390,-2.976433,-0.405190,0.410515,61.622875,-12.554379,-111.476746
197,996340148,18.872543,1.034408,150.105835,-3.501001,1.214941,0.802770,10.895216,-14.835646,-124.274529
198,996356815,18.573374,1.783033,147.881104,-4.730262,3.122850,0.538433,-14.483540,-2.719043,-140.551956
199,996373482,18.478418,2.943443,145.483093,-5.605050,4.945144,0.012083,0.415661,17.911991,-158.180557
200,996390149,18.881437,4.507082,143.031891,-5.883758,5.350660,0.337353,33.907227,39.441807,-168.833893
201,996406816,19.289949,6.409779,140.585587,-6.592085,3.969147,1.697436,38.639919,57.679741,-175.170670
202,996423483,19.118946,8.583751,138.141434,-7.815319,3.886874,2.390334,9.044786,72.921021,-179.975021
203,996440150,18.592735,11.070717,135.740646,-7.739343,5.232251,1.757857,-6.813972,92.905472,-182.313507
204,996456817,18.325363,13.992238,133.307281,-6.640528,5.911204,0.803369,15.802070,118.709328,-190.469009
205,996473484,18.525059,17.211889,131.130219,-4.154748,4.607882,0.387590,47.264843,141.080353,-180.202621
206,996490151,18.895638,20.627951,129.326355,-4.070197,2.926420,0.861448,57.476105,158.862320,-162.513397
207,996506818,19.124403,24.170256,127.876541,-4.409805,2.310749,1.213428,47.023865,172.324936,-145.064224
208,996523485,19.345907,27.847654,126.849686,-3.884508,2.057309,0.506935,40.457314,187.661606,-124.767876
209,996540152,19.907522,31.586136,126.308327,-2.591003,1.179191,-0.550320,49.941387,199.380844,-101.713577
210,996556819,20.819298,35.269165,126.328964,-1.352715,-0.176414,-0.541917,54.160023,205.109253,-75.726219
211,996573486,21.956942,38.723980,126.883896,-0.743000,-1.744733,-0.423147,48.356373,200.282547,-50.628223
212,996590153,23.572351,41.872974,128.001968,0.613460,-2.505699,-0.975648,53.667164,191.579834,-25.720978
213,996606820,26.367195,44.764732,129.860199,2.988201,-2.607504,-1.785646,91.314880,189.077026,0.507076
214,996623487,30.917412,47.401379,132.589935,4.956582,-2.866035,-2.234356,155.121613,190.824783,24.096830
215,996640154,37.318417,49.699627,136.236664,5.465959,-3.334301,-2.141054,220.120605,192.915588,42.810318
216,996656821,44.979004,51.585308,140.553085,4.925813,-3.941964,-0.731536,259.436157,190.771912,49.480412
217,996673488,52.484680,53.062351,145.029831,2.837354,-4.864894,1.516352,237.823303,179.341827,41.928162
218,996690155,58.629723,54.200787,149.068100,3.221479,-6.053147,2.741401,173.727051,154.604797,25.177362
219,996706822,63.250038,55.080090,152.378174,5.916502,-7.037003,1.225785,115.412224,123.575851,9.952891
220,996723489,66.375793,55.653141,154.729462,7.518658,-6.408466,0.681625,71.652489,84.671921,3.253895
221,996740156,68.270905,55.911369,156.190659,8.597220,-4.115804,0.063950,41.404133,48.946621,4.963397
222,996756823,69.662514,55.897072,157.171692,8.954412,-1.294604,-0.219491,34.952026,27.970106,12.907074
223,996773490,70.928871,55.742802,157.994003,7.210515,0.695537,0.311856,35.366066,20.453892,18.331554
224,996790157,71.900246,55.646965,158.710129,4.782929,0.904669,1.354481,22.993664,18.601837,13.447518
225,996806824,72.258293,55.732845,159.210693,2.705900,-0.048389,2.239273,-3.119143,15.177029,0.590892
226,996823491,71.762581,56.047230,159.360229,1.448609,-0.849813,2.444511,-36.963085,8.094422,-16.100008
227,996840158,70.395462,56.595108,159.086426,1.121339,-1.283882,2.345340,-68.143494,-0.476470,-33.760658
228,996856825,68.398109,57.326080,158.387955,1.925996,-1.199303,1.705218,-84.499367,-8.472148,-48.805191
229,996873492,66.250504,58.147232,157.372787,3.175835,-1.011964,0.866970,-77.140190,-13.526248,-57.703037
230,996890159,64.344803,58.965107,156.137131,4.177322,-1.200956,0.432594,-50.877228,-17.150866,-60.446472
231,996906826,62.813431,59.724350,154.698273,4.832880,-1.471181,0.439486,-17.404560,-21.671432,-60.081966
232,996923493,61.473671,60.357304,152.996155,5.022002,-1.780399,0.958835,8.305202,-29.867744,-57.101116
233,996940160,60.025696,60.858360,150.941345,4.988414,-2.180948,1.357923,20.750809,-40.625706,-55.484432
234,996956827,58.351952,61.211063,148.561478,4.901346,-2.429681,1.761643,24.719656,-51.073666,-53.278568
235,996973494,56.318695,61.391933,145.902740,4.527031,-2.449725,2.000630,18.149164,-61.152302,-50.160870
236,996990161,53.857338,61.382660,143.038788,4.170120,-2.603963,1.924459,3.389535,-70.318649,-46.319050
237,997006828,51.123207,61.115871,140.127640,4.060224,-2.953283,1.729959,-10.687960,-78.911575,-38.139160
238,997023495,48.412247,60.515129,137.378540,4.205044,-3.194660,1.315881,-18.428581,-87.202133,-24.116526
239,997040162,46.142315,59.556675,134.997986,4.094658,-3.246472,0.953202,-12.229710,-93.944756,-5.835181
240,997056829,44.507690,58.269348,133.076447,3.612104,-3.036270,0.797076,0.880064,-99.160461,13.389825
241,997073496,43.465977,56.692200,131.690018,2.686964,-2.537986,0.658658,7.866269,-101.672081,33.865116
242,997090163,42.805038,54.817841,130.862091,1.695324,-2.226082,0.615182,1.631475,-103.712448,56.817776
243,997106830,42.246464,52.656860,130.515976,0.986098,-1.997676,0.079848,-16.544577,-106.392769,78.911140
244,997123497,41.768002,50.223412,130.637695,0.517234,-1.936673,-1.091656,-34.194588,-107.982018,101.419746
245,997140164,41.458328,47.537830,131.120789,0.133958,-1.420301,-1.777102,-40.194481,-110.349571,121.586655
246,997156831,41.374584,44.602787,131.948715,-0.008483,-0.918937,-2.104835,-40.583076,-111.797791,142.662781
247,997173498,41.345234,41.432747,133.085800,-1.096932,-0.385534,-2.207017,-48.092072,-112.330391,163.441299
248,997190165,41.079273,37.980770,134.496292,-1.456512,-0.221312,-2.091964,-69.808479,-115.441017,185.756363
249,997206832,40.450695,34.173641,136.161407,-1.437607,-0.425337,-2.117897,-96.323608,-122.806198,210.627197
250,997223499,39.422222,29.971754,138.141876,-1.884781,0.371902,-2.828576,-124.572205,-131.183151,239.366394
251,997240166,38.180992,25.420248,140.507080,-3.015086,2.295269,-3.693359,-140.186783,-136.584274,269.366974
252,997256833,36.761868,20.657785,143.291306,-5.508350,4.756151,-3.550093,-150.268875,-135.736130,296.165375
253,997273500,35.231022,15.756459,146.332901,-8.073878,6.221553,-2.720644,-148.602264,-138.492203,313.412079
254,997290167,33.869797,11.056104,149.464111,-11.223980,8.515598,-0.249332,-124.970154,-131.078537,310.766022
255,997306834,32.330120,7.244813,152.570465,-14.257626,9.649071,4.210108,-121.760963,-93.532661,279.319763
256,997323501,30.517157,4.737309,155.257629,-12.165364,5.829747,4.014004,-125.361229,-47.260269,215.548355
257,997340168,29.100485,3.220917,157.062531,-6.155369,1.821528,-0.020698,-92.294922,-27.728868,139.237076
258,997356835,28.247423,2.525926,157.857315,-2.794090,0.648764,-0.010979,-53.366405,-16.222727,62.063076
259,997373502,27.860312,2.528424,157.711716,-2.700727,1.763311,0.418184,-22.636847,-6.460613,-7.503974
260,997390169,28.132967,2.931089,156.950195,-2.233524,3.582295,-0.088553,18.740747,-2.578201,-51.370918
261,997406836,29.120649,3.507909,155.975662,-1.790301,3.679596,-0.146124,62.747803,-0.077289,-67.557564
262,997423503,30.246717,4.153588,154.978195,-1.891908,2.506546,0.259103,71.766762,1.599039,-70.799026
263,997440170,30.930006,4.826397,153.941315,-2.385838,1.705645,0.265900,46.073551,0.705514,-73.668755
264,997456837,31.037668,5.572985,152.745972,-2.654553,1.647207,-0.032942,13.167011,-0.850069,-84.029839
265,997473504,30.744513,6.474250,151.280533,-3.102817,2.111721,0.056959,-8.154183,-0.972102,-102.535332
266,997490171,30.535088,7.705857,149.555542,-4.488730,3.242602,0.151584,0.417286,8.748206,-125.764641
267,997506838,30.678242,9.345119,147.668976,-6.110461,4.146430,-0.024067,25.573177,25.169285,-146.161270
268,997523505,31.123636,11.432009,145.664185,-7.817083,4.386844,0.144073,48.611458,44.188007,-165.566864
269,997540172,31.559784,13.970788,143.578781,-8.916080,4.589532,0.485768,53.874100,64.117920,-183.228363
270,997556839,31.854422,16.996321,141.438263,-9.637094,5.260336,0.078815,52.157608,86.894119,-200.457413
271,997573506,32.101322,20.482819,139.302109,-9.355227,5.848305,-0.835233,56.182327,110.671875,-213.499466
272,997590173,32.304726,24.269251,137.274811,-7.281330,4.798358,-1.319292,58.699787,129.801682,-216.014191
273,997606840,32.318138,28.119913,135.380493,-5.032232,3.020137,-0.978974,51.171318,138.261261,-209.458405
274,997623507,32.093266,31.911509,133.612045,-3.936512,2.607301,-1.350788,39.786400,141.039093,-198.760132
275,997640174,31.828579,35.632568,132.102386,-3.279019,2.469040,-1.862674,34.668324,147.082214,-181.835876
276,997656841,31.724285,39.193901,130.997772,-2.208042,1.484001,-1.945668,34.201488,151.454575,-157.052765
277,997673508,31.810589,42.462833,130.366440,-0.571264,-0.370427,-0.939337,30.129026,149.193924,-127.406784
278,997690175,31.904299,45.296116,130.091629,0.323337,-1.821761,-0.667757,17.237375,135.647064,-99.596413
279,997706842,32.135670,47.673271,130.135254,1.152948,-2.530132,-0.534752,12.168606,119.414413,-73.870544
280,997723509,33.082890,49.627941,130.627213,2.153229,-2.857164,-0.465647,34.854645,106.825676,-46.547596
281,997740176,35.385464,51.198048,131.682205,3.123522,-3.179658,-0.411977,89.549423,98.097046,-19.418131
282,997756843,39.077747,52.444836,133.343506,3.002188,-3.871613,0.130700,143.354904,94.353844,4.030955
283,997773510,43.384624,53.342255,135.329910,1.366353,-5.059600,2.041802,163.538071,85.395554,18.826845
284,997790177,47.405712,53.928192,137.299133,1.204586,-5.119634,3.226083,146.304367,72.067078,24.405024
285,997806844,50.897240,54.328228,139.191055,3.502567,-4.553715,2.675987,117.692497,63.511520,25.590851
286,997823511,54.340923,54.578976,141.204834,6.359107,-4.148928,1.178225,108.497467,62.441189,30.937605
287,997840178,58.262592,54.631653,143.555908,10.213470,-3.754113,-1.115112,120.489853,67.217110,42.952679
288,997856845,63.072536,54.304909,146.479202,12.603958,-2.848778,-3.272507,146.036682,76.745964,67.283386
289,997873512,68.054062,53.392536,149.809753,9.313176,-1.797030,-2.117144,137.699661,82.166542,98.859459
290,997890179,71.399521,52.084003,152.862701,4.058202,-0.971510,1.427705,55.116543,74.316566,112.330086
291,997906846,72.317581,50.766724,155.226425,2.522845,-0.836526,3.447410,-55.593555,56.912933,102.909454
292,997923513,71.648125,49.702667,156.868027,4.015375,-1.115434,3.169869,-115.667030,37.653111,80.481941
293,997940180,70.631065,49.084091,157.853302,4.644963,-1.050767,2.756580,-105.692490,21.894936,47.848919
294,997956847,70.018845,48.990646,158.281189,4.437840,-0.997753,2.674483,-55.909172,11.442502,11.237841
295,997973514,69.923416,49.396252,158.183044,3.645218,-1.236232,2.950586,-1.059151,2.199860,-23.887447
296,997990181,70.010193,50.175610,157.599823,3.141334,-1.272534,2.940173,32.139729,-7.724494,-51.369255
297,998006848,69.968987,51.168240,156.587265,3.367002,-1.216992,2.737052,44.730232,-18.319275,-68.836586
298,998023515,69.577202,52.206169,155.205719,3.746170,-1.182962,2.365646,41.746674,-29.209404,-75.892754
299,998040182,68.693642,53.194832,153.433014,4.240666,-0.909664,2.041497,31.809315,-41.619537,-78.073219
300,998056849,67.374405,54.096630,151.335312,4.556118,-0.732978,1.508618,22.427109,-51.471489,-77.768730
301,998073516,65.729408,54.856621,149.035172,4.527960,-1.045087,1.445483,13.842876,-57.940693,-73.423691
302,998090183,63.698303,55.438061,146.544998,4.253693,-1.661878,1.784591,0.965622,-64.818909,-67.691864
303,998106850,61.251217,55.806355,143.916779,3.849435,-2.107383,1.846426,-16.450584,-71.266518,-60.421112
304,998123517,58.447788,55.927486,141.217392,3.615721,-2.522201,1.657277,-33.917034,-77.449936,-51.607719
305,998140184,55.521553,55.760147,138.586975,3.652140,-2.762712,1.160389,-44.745335,-82.286461,-39.539749
306,998156851,52.831455,55.250816,136.238510,3.721972,-2.978198,0.601854,-45.044914,-85.106056,-21.607630
307,998173518,50.537506,54.367943,134.278107,3.386678,-3.035389,-0.044385,-41.280914,-88.547813,-0.146382
308,998190185,48.621708,53.080997,132.778076,2.767311,-3.030532,-0.646017,-42.161572,-93.129005,24.578463
309,998206852,46.952049,51.378101,131.747116,2.322555,-2.633584,-1.264848,-51.049107,-99.237625,50.541367
310,998223519,45.599560,49.289463,131.246689,1.968829,-2.113730,-1.988632,-57.804207,-102.999077,77.640854
311,998240186,44.733517,46.836903,131.310043,1.544847,-1.507430,-2.521256,-54.558151,-104.481171,106.471832
312,998256853,44.691540,44.062351,131.902786,1.362076,-0.805988,-3.415603,-27.640776,-103.280266,135.175400
313,998273520,45.275146,40.993382,132.926910,0.407673,-0.121790,-3.386116,-6.308158,-100.758575,162.515442
314,998290187,45.760704,37.646297,134.250351,-1.462242,0.445355,-2.515599,-20.975863,-99.407204,186.642380
315,998306854,45.399364,33.980362,135.792526,-2.946459,0.636608,-1.361430,-75.601532,-102.873718,209.934067
316,998323521,44.249432,29.972471,137.480408,-2.769757,0.897110,-2.432208,-122.384590,-112.515686,230.767700
317,998340188,43.350830,25.756290,139.310974,-2.699362,2.515650,-4.588258,-105.014351,-117.882698,245.488388
318,998356855,43.033569,21.402967,141.366776,-4.441954,4.062493,-3.873825,-68.161606,-115.547623,261.498413
319,998373522,42.029690,16.888586,143.558350,-6.787394,3.441791,-0.626360,-103.116104,-118.112984,274.945160
320,998390189,39.418404,12.208111,145.813126,-7.517562,3.370070,0.946918,-190.348389,-129.885101,282.785431
321,998406856,35.682743,7.459826,148.268799,-7.495741,4.751631,0.262012,-248.934219,-139.881073,289.084320
322,998423523,31.791761,2.914743,151.131897,-8.478970,6.614499,1.097282,-248.610336,-134.233566,294.074249
323,998440190,28.327795,-0.723516,154.338989,-9.994097,6.303758,4.207036,-211.181259,-95.022034,276.173828
324,998456857,26.014568,-2.946869,157.450577,-8.668885,4.470606,3.161341,-132.550659,-35.936653,227.203613
325,998473524,25.801954,-3.836353,159.885483,-5.810263,1.202164,0.072054,-3.900941,13.230630,154.765121
326,998490191,27.321247,-3.620353,160.913391,-4.024161,-3.403141,0.760661,95.373268,36.622257,49.522171
327,998506858,28.573618,-2.921916,160.282608,-2.737894,-1.646252,1.491092,73.185143,16.820276,-52.750408
328,998523525,28.890778,-2.311751,158.688019,-2.537232,0.171727,2.213573,14.862658,-16.332363,-101.136154
329,998540192,28.789982,-2.004527,157.031342,-2.970075,1.324692,0.911412,-9.588745,-34.256187,-95.632370
330,998556859,28.702675,-1.898361,155.792099,-1.977344,3.647853,-0.818258,-7.569577,-32.641354,-67.948502
331,998573526,29.015345,-1.740025,154.831039,-0.539946,4.453321,-2.346142,17.131302,-21.984594,-54.797806
332,998590193,29.745535,-1.410668,153.898911,-0.402512,2.595806,-1.356584,42.477211,-12.692662,-58.144951
333,998606860,30.515711,-0.913924,152.867416,-1.349326,1.858695,0.148549,45.158070,-7.769668,-68.215614
334,998623527,31.210676,-0.225307,151.617554,-2.600315,2.019081,0.590772,41.155247,-5.486887,-85.300179
335,998640194,31.900820,0.664309,150.103821,-4.034538,2.234761,1.113839,41.958462,-4.532295,-105.062820
336,998656861,32.684166,1.819335,148.370758,-5.032731,2.705454,1.832979,49.451408,0.556247,-124.643265
337,998673528,33.561584,3.359018,146.446915,-5.898854,3.122144,1.768861,58.052345,11.870223,-146.794479
338,998690195,34.219036,5.399546,144.330292,-7.473638,3.161271,1.218786,49.334648,28.533112,-173.121918
339,998706862,34.318897,7.955997,142.074249,-9.225220,3.542801,1.348063,21.927574,48.561161,-197.218048
340,998723529,33.958183,10.971125,139.872177,-8.808239,4.256544,1.112014,0.281513,74.097961,-209.143845
341,998740196,33.562618,14.436495,137.778381,-7.221867,4.338579,0.294785,4.092877,102.257454,-217.190308
342,998756863,33.321480,18.207363,135.882431,-5.803497,4.146167,-0.201551,17.696747,126.137436,-215.548279
343,998773530,33.209686,22.129154,134.386780,-4.612222,4.272352,-0.823942,24.422028,148.059158,-199.273865
344,998790197,33.207520,26.209406,133.323624,-4.559553,3.970785,-1.284249,26.171530,170.483322,-182.548340
345,998806864,33.370972,30.354017,132.702133,-2.940443,2.925747,-1.719226,27.652349,187.380402,-163.716507
346,998823531,33.489971,34.387939,132.383621,-1.787552,1.415739,-1.573716,17.552427,190.633652,-146.593109
347,998840198,33.584564,38.189514,132.304504,-1.173486,0.125755,-0.999010,8.665461,185.543762,-128.982452
348,998856865,33.818180,41.688717,132.617188,-1.294794,-0.528816,-0.538763,2.149535,180.184540,-104.302109
349,998873532,34.272194,44.837822,133.496399,-0.652895,-0.942475,-0.269508,-8.739174,175.597855,-73.722641
350,998890199,34.962944,47.626797,134.972733,0.379050,-1.807390,0.685480,-22.351116,170.046646,-44.405922
351,998906866,35.715668,50.093895,136.884460,1.147331,-3.047155,1.791156,-41.046291,161.915939,-23.826374
352,998923533,36.274178,52.273392,138.994461,1.035266,-3.986490,1.857552,-64.948906,149.953644,-12.412180
353,998940200,36.818081,54.177708,141.217529,2.140082,-4.678147,1.823598,-74.018417,136.852798,-3.649417
354,998956867,37.796841,55.824162,143.527313,4.449453,-4.864645,1.276740,-54.613827,124.256973,3.592370
355,998973534,39.389561,57.102722,145.909576,6.748500,-5.350815,0.182462,-23.391605,106.716866,14.109659
356,998990201,41.393421,57.937778,148.103760,9.426897,-6.108164,-1.387898,9.365617,81.472420,21.621168
357,999006868,44.123253,58.243122,150.197098,14.175158,-5.389788,-3.832556,57.363712,56.020401,36.555401
358,999023535,47.962822,57.830475,152.470245,15.027425,-4.387015,-4.768143,114.854523,32.283173,68.195877
359,999040202,52.357456,56.686787,154.737579,8.131199,-5.441081,-1.918001,149.433456,10.025414,100.097885
360,999056869,55.450947,55.263592,156.345642,0.834201,-4.573343,2.438512,105.832932,-9.201010,101.087288
361,999073536,56.346031,54.045666,156.931274,0.845860,-2.428319,3.524143,25.242865,-26.662128,72.189667
362,999090203,55.999939,53.230358,156.847122,3.525500,0.286396,1.904806,-16.496958,-32.245110,39.256409
363,999106870,55.705475,52.861996,156.607147,4.776549,1.592046,0.846834,-5.959463,-22.096437,13.719945
364,999123537,55.904572,52.930443,156.333344,3.506164,1.044993,1.405187,25.252508,-8.416125,-8.671958
365,999140204,56.132210,53.406693,155.888580,2.240010,0.126402,2.973968,35.225307,0.178900,-32.338921
366,999156871,55.952103,54.199699,155.124176,2.221955,-0.342583,3.572790,26.413521,1.584121,-54.294918
367,999173538,55.204792,55.155582,153.974030,2.682241,-0.179274,3.193843,11.673212,-3.018292,-69.560364
368,999190205,53.958023,56.160622,152.443085,3.796961,0.159033,2.136621,1.252060,-9.812430,-78.865784
369,999206872,52.414185,57.145111,150.660019,4.625481,0.001672,1.727746,-3.042492,-14.217573,-82.214890
370,999223539,50.558620,58.034534,148.623474,4.713825,-0.436974,1.651247,-7.954123,-20.545904,-82.219498
371,999240206,48.148312,58.779167,146.254272,4.130435,-1.140720,1.892243,-23.309992,-29.932552,-82.084709
372,999256873,45.126583,59.289833,143.574997,4.045316,-1.621513,1.961719,-43.233822,-41.624676,-78.741570
373,999273540,41.777596,59.526382,140.808060,4.462566,-1.956972,1.699072,-57.801350,-50.332912,-70.766212
374,999290207,38.432640,59.441326,138.072159,4.981964,-2.314339,1.535954,-59.052418,-60.128738,-60.137112
375,999306874,35.412327,59.013901,135.555710,5.123053,-2.761618,1.132444,-51.260082,-69.438286,-46.020466
376,999323541,32.947277,58.209938,133.453064,4.780839,-3.004940,0.681572,-39.973042,-79.352219,-26.929977
377,999340208,31.056086,57.006424,131.895126,4.184729,-2.977516,0.250913,-34.304565,-90.312119,-3.866761
378,999356875,29.653625,55.383991,130.920044,3.759317,-3.068439,0.014522,-35.297142,-102.994476,21.440651
379,999373542,28.707497,53.312183,130.517319,3.345343,-3.052343,-0.683020,-36.893852,-117.949280,48.649410
380,999390209,28.315660,50.799496,130.652725,2.649350,-2.633148,-1.938533,-29.684225,-132.646622,76.695770
381,999406876,28.485054,47.855564,131.278915,2.090286,-1.956513,-2.893387,-18.103443,-146.284866,105.892403
382,999423543,29.196867,44.445278,132.340347,1.277955,-1.529683,-3.806120,-3.006073,-160.506012,137.690475
383,999440210,30.008194,40.607533,133.684174,-0.555127,-1.316851,-3.837983,-5.614380,-173.402527,165.752823
384,999456877,30.479061,36.356163,135.154526,-1.872802,-0.842742,-3.544727,-26.436674,-188.122452,188.478165
385,999473544,30.616207,31.753208,136.733826,-3.370073,0.407609,-3.860330,-44.621296,-200.482727,208.317596
386,999490211,30.517891,26.822176,138.410080,-4.600521,1.367030,-4.770367,-54.882927,-212.671295,226.325562
387,999506878,30.947475,21.782373,140.024063,-6.329328,3.358396,-5.444975,-13.886678,-217.345840,230.727341
388,999523545,31.434395,16.835781,141.811264,-8.629704,5.285397,-3.455619,-6.051535,-204.001709,240.601089
389,999540212,30.434015,12.123640,143.677948,-10.191240,5.314762,1.807263,-87.778877,-189.280548,238.676727
390,999556879,26.953850,7.647666,145.419128,-9.568771,4.373292,4.499838,-226.412643,-188.702576,219.568558
391,999573546,22.030983,3.540641,147.210388,-8.780018,4.866382,2.735856,-305.487915,-182.460739,199.862030
392,999590213,17.453463,0.140935,149.263016,-7.914130,6.199426,1.378437,-278.289276,-152.942368,185.100159
393,999606880,14.510015,-2.120775,151.440308,-6.268818,6.840688,1.011445,-174.097458,-96.990372,163.229523
394,999623547,13.858517,-3.132092,153.357986,-4.612552,5.748159,0.668673,-33.604191,-33.151981,126.577789
395,999640214,15.373416,-3.165329,154.736359,-3.284995,3.944710,0.285430,95.641487,16.422333,80.683418
396,999656881,18.244518,-2.655940,155.520874,-3.184211,2.036509,0.476045,174.863266,40.374161,36.436920
397,999673548,21.164274,-2.034630,155.728104,-3.135223,0.341472,1.470679,175.903290,36.810524,-0.606386
398,999690215,23.275404,-1.508998,155.369156,-2.996914,-0.128850,1.932552,126.209999,18.581230,-31.590797
399,999706882,24.487284,-1.080137,154.568283,-3.035667,0.620182,1.332520,71.834312,1.607697,-54.083088
400,999723549,25.271803,-0.611019,153.476913,-2.766351,1.901995,0.553679,46.310390,-4.481145,-70.979317
401,999740216,26.075836,0.070758,152.171967,-3.065075,2.239704,0.410524,48.076092,0.479685,-88.029465
402,999756883,27.148735,1.082306,150.667480,-4.127973,2.875942,1.335643,65.481018,11.363260,-107.634521
403,999773550,28.547501,2.618761,149.036942,-5.753740,3.836978,2.714035,87.277077,33.370571,-129.272873
404,999790217,30.048191,4.815289,147.328064,-7.343461,4.618835,3.772276,96.869873,62.403950,-153.480881
405,999806884,31.554478,7.787566,145.532898,-8.380543,5.199088,3.604089,102.368088,95.902870,-183.046249
406,999823551,32.785618,11.367781,143.637161,-8.742499,5.469145,1.149013,92.956421,119.656990,-209.095001
407,999840218,33.387047,15.222188,141.747620,-7.983931,5.303755,-1.684226,62.331261,131.078903,-218.480423
408,999856885,33.236053,19.274521,139.903717,-7.730831,4.867526,-1.649130,23.936975,142.715881,-221.626236
409,999873552,32.631775,23.458179,138.278000,-5.780154,4.195525,-1.177930,-0.518209,158.856705,-212.520508
410,999890219,32.262886,27.670641,137.031845,-2.697838,2.594315,-1.631830,10.321362,174.677551,-192.339417
411,999906886,32.553970,31.750507,136.298462,-2.547220,1.129497,-1.630202,39.440079,183.770569,-163.282288
412,999923553,33.002430,35.538158,136.080460,-3.101353,0.690301,-1.416425,34.315254,182.770462,-132.015350
413,999940220,33.129421,39.060150,136.291092,-2.235455,0.129494,-1.430455,0.126975,180.174866,-106.696014
414,999956887,33.326309,42.334507,137.058716,-1.067240,-0.780309,-0.752434,-18.055300,181.068604,-78.271790
415,999973554,33.726662,45.277195,138.415848,-0.881561,-1.687273,-0.194645,-32.182014,177.231659,-48.353447
416,999990221,34.110580,47.893513,140.145493,-0.429313,-2.659506,-0.036066,-52.182484,167.649429,-28.233416
417,1000006888,34.401817,50.187412,142.153809,-0.460266,-3.818950,-0.416051,-73.351250,155.800812,-12.007610
418,1000023555,34.864429,52.155277,144.441132,0.011871,-4.701119,-0.545233,-78.981712,143.626556,3.878764
419,1000040222,35.557369,53.824917,146.947662,1.132306,-4.820676,-0.205320,-78.339630,131.614822,16.380932
420,1000056889,36.252716,55.178375,149.495255,1.890449,-5.349209,0.547008,-82.545250,115.394119,24.450356
421,1000073556,36.607662,56.166866,151.800751,1.928627,-6.604178,1.537009,-92.754913,91.608910,27.719522
422,1000090223,36.604557,56.786873,153.733475,4.041980,-6.542356,1.511393,-96.675362,65.615295,29.406157
423,1000106890,36.631180,57.069973,155.332642,6.782614,-5.473142,1.018279,-78.622574,42.419556,32.074425
424,1000123557,37.153725,57.049328,156.789886,9.922583,-3.161308,-0.053288,-41.839340,25.095751,38.956085
425,1000140224,38.191689,56.765438,158.157913,12.036215,-1.080505,-0.962539,-6.302568,11.440766,46.085205
426,1000156891,40.091942,56.177963,159.665894,14.513831,1.462667,-2.338442,38.780334,1.733339,61.229424
427,1000173558,42.888023,55.303387,161.312927,10.630007,-0.024810,-1.043769,86.281593,-4.935146,76.673409
428,1000190225,44.989491,54.358555,162.470947,4.691362,-2.527678,2.442446,69.489075,-15.545775,68.412575
429,1000206892,45.219978,53.616699,162.652176,2.299774,-2.580019,4.036046,5.239060,-29.391169,36.310013
430,1000223559,43.948601,53.189373,161.976639,3.011439,-1.310631,3.261798,-43.537090,-37.730778,1.055019
431,1000240226,42.126484,53.054958,160.770203,3.869773,-0.183961,1.659609,-51.216663,-38.053268,-25.973465
432,1000256893,40.412174,53.175476,159.184372,3.758601,-0.282456,0.791630,-26.545792,-34.750683,-47.412609
433,1000273560,38.890442,53.469536,157.223404,2.805994,-1.043517,0.996483,3.269248,-33.780704,-65.079834
434,1000290227,37.437279,53.823956,154.971619,2.434693,-1.252969,1.261330,21.835318,-35.292374,-75.812767
435,1000306894,36.008987,54.134754,152.448486,2.552146,-1.076804,1.207467,36.958019,-40.815369,-82.210083
436,1000323561,34.724014,54.353443,149.836212,3.224041,-0.522592,0.822202,50.309559,-44.840908,-81.978172
437,1000340228,33.617611,54.471378,147.219604,3.890568,-0.547505,0.388337,61.503853,-47.993778,-79.257416
438,1000356895,32.642384,54.481529,144.603500,4.246474,-0.971819,0.418566,69.454437,-51.870628,-76.395523
439,1000373562,31.624458,54.375080,141.949097,3.861282,-1.862509,1.161459,68.689362,-57.224064,-74.736443
440,1000390229,30.291590,54.160500,139.203415,3.454818,-2.652299,1.912292,53.981144,-63.070229,-75.553970
441,1000406896,28.553776,53.810646,136.349716,3.319958,-2.982583,1.979024,34.457054,-70.282448,-77.047058
442,1000423563,26.687851,53.321720,133.559937,3.513968,-2.857379,1.638652,22.949305,-74.627876,-74.145287
443,1000440230,25.147686,52.729450,131.125275,3.837363,-2.791788,1.380594,24.530453,-72.919418,-63.152264
444,1000456897,24.257202,52.076382,129.260300,3.925448,-2.789615,1.147518,35.466202,-66.693657,-45.301468
445,1000473564,24.023275,51.351959,128.002808,3.480415,-3.015246,1.240618,45.422798,-61.355911,-24.532116
446,1000490231,24.382334,50.506371,127.348335,2.625687,-2.994260,0.828118,52.270885,-59.004494,-1.417297
447,1000506898,25.240904,49.543022,127.318565,1.578065,-2.740432,0.543369,53.123192,-55.533165,23.575981
448,1000523565,26.320246,48.424301,127.854065,0.603139,-2.270903,0.562572,40.756363,-53.862858,48.545322
449,1000540232,27.384602,47.113155,128.878784,0.114542,-1.654616,0.551227,18.575653,-54.114101,72.766510
450,1000556899,28.397594,45.540142,130.358475,-0.116253,-1.104171,0.015208,-3.202554,-57.332451,98.699417
451,1000573566,29.462475,43.647697,132.194122,-0.500034,-0.597997,-1.160304,-13.209076,-64.027405,123.929550
452,1000590233,30.608192,41.426823,134.303101,-1.171392,0.260482,-2.180451,-16.589823,-71.277321,147.770874
453,1000606900,31.721285,38.859764,136.664993,-1.706123,1.035303,-2.641160,-24.371458,-78.312904,172.753250
454,1000623567,32.590622,35.925365,139.238251,-2.478357,1.475793,-2.646773,-41.400818,-86.339920,197.896667
455,1000640234,32.944645,32.570488,141.929550,-2.844169,1.860529,-2.731981,-69.433723,-99.575928,221.523438
456,1000656901,32.748444,28.776875,144.685059,-3.481803,2.790056,-3.318529,-95.908264,-116.645332,243.258179
457,1000673568,32.097626,24.599934,147.540939,-5.220207,4.449810,-3.766901,-115.789726,-131.994141,263.938873
458,1000690235,30.914427,20.141485,150.482635,-7.338550,6.372896,-3.312274,-137.925903,-145.290512,279.288605
459,1000706902,29.245720,15.595448,153.441940,-9.419543,7.523219,-2.349600,-154.335953,-153.822769,283.276917
460,1000723569,27.304972,11.268678,156.286850,-10.920091,7.255023,-0.507237,-155.818604,-152.462677,269.514709
461,1000740236,25.276033,7.491249,158.975830,-10.699752,6.334025,1.307391,-147.760010,-135.164505,243.404007
462,1000756903,23.514149,4.637931,161.359909,-8.777181,4.758526,1.939957,-120.578247,-99.622887,200.526215
463,1000773570,22.356739,2.882616,163.157394,-5.810854,2.500543,1.359763,-76.292786,-57.507973,140.409485
464,1000790237,22.034649,2.230958,163.955109,-3.732213,0.255784,0.170178,-21.245615,-20.585335,59.294773
465,1000806904,22.398884,2.356605,163.620300,-2.538511,1.082652,-1.463369,22.869152,-3.051610,-21.182095
466,1000823571,23.432871,2.979437,162.517792,-2.817016,1.665557,-0.798260,65.325653,6.254027,-75.168083
467,1000840238,24.933796,3.897911,161.191376,-3.656283,0.928887,0.694049,95.030258,15.297139,-94.806107
468,1000856905,25.920809,4.911366,159.815109,-4.003397,-0.143101,1.476808,65.762619,17.141357,-100.230240
469,1000873572,25.703079,5.888067,158.259781,-3.913579,0.050968,0.975387,-4.082542,9.884519,-108.916824
470,1000890239,24.445698,6.849288,156.460907,-4.230001,1.195648,-0.010407,-63.271103,4.368297,-121.368599
471,1000906906,22.942083,7.941840,154.446899,-4.959417,3.048782,-0.637663,-74.464897,9.467506,-135.850311
472,1000923573,21.737350,9.330518,152.286469,-6.147126,4.506024,-0.848834,-52.627197,25.960827,-149.984283
473,1000940240,20.982817,10.994223,150.045532,-5.991741,4.438988,-0.333649,-21.364405,42.380245,-159.395752
474,1000956907,20.457180,12.843654,147.798157,-5.841128,3.435733,0.788099,-3.514388,54.743206,-162.451431
475,1000973574,19.769417,14.876493,145.538879,-7.215529,3.523262,1.524680,-8.623343,66.919716,-165.322540
476,1000990241,18.952368,17.186106,143.230255,-8.054117,4.397908,1.439229,-10.608471,84.262291,-171.349579
477,1001006908,18.292002,19.894300,140.816498,-7.759647,4.819262,1.007888,6.576591,107.807373,-181.825119
478,1001023575,17.815157,22.934088,138.439529,-6.664479,4.268323,0.610989,23.595715,129.942337,-182.594589
479,1001040242,17.356287,26.182573,136.258499,-5.487156,3.009545,0.507264,26.980886,147.534454,-172.200806
480,1001056909,16.700296,29.510822,134.313950,-4.601987,1.902455,0.166997,15.256924,158.437714,-156.982132
481,1001073576,15.808334,32.834446,132.655502,-3.911155,1.353991,-0.683114,-1.897583,165.333435,-137.429993
482,1001090243,14.792052,36.044647,131.378159,-2.824564,0.651183,-1.021476,-17.530434,166.834427,-111.679840
483,1001106910,13.844528,39.095425,130.506897,-2.058944,-0.177559,-0.916748,-24.881573,164.851166,-85.311386
484,1001123577,12.953604,41.908768,129.995560,-0.550748,-1.321618,-0.217413,-33.439735,156.541351,-61.712811
485,1001140244,12.182961,44.412807,129.821945,1.627785,-2.380378,0.024080,-39.024639,142.728729,-40.016842
486,1001156911,12.126445,46.557045,130.203705,3.643939,-2.895198,-0.532143,-19.640097,126.883949,-11.294502
487,1001173578,13.400501,48.388325,131.452423,4.264355,-2.972170,-0.923421,21.312130,116.067017,25.217154
488,1001190245,15.476022,49.937954,133.472900,3.211529,-3.637767,-0.161582,32.905308,107.501343,53.686714
489,1001206912,17.245670,51.089394,135.846603,2.161694,-5.168268,0.880571,-3.632695,89.481155,67.539276
490,1001223579,18.526505,51.887264,138.395706,3.129747,-5.147371,1.256721,-42.708309,72.475861,76.032257
491,1001240246,19.820864,52.470272,141.176529,5.788579,-3.425750,0.742478,-54.010754,64.297073,85.254967
492,1001256913,21.750916,52.893459,144.326569,7.841139,-1.747046,-0.663075,-34.373329,62.038677,98.229874
493,1001273580,24.487715,53.177723,147.805466,8.262765,-1.218047,-1.648479,-2.429384,62.590107,108.871124
494,1001290247,27.705412,53.274216,151.397354,6.955702,-2.247620,-1.043301,20.588732,59.561127,113.467957
495,1001306914,30.831491,53.193794,154.751938,5.780806,-2.995538,0.507410,26.490036,52.283237,107.617584
496,1001323581,33.467712,52.966087,157.537201,5.203695,-3.317141,1.539609,24.747932,39.430531,92.443901
497,1001340248,35.308830,52.637577,159.500443,5.138233,-2.782300,1.909504,16.827131,21.520407,70.096275
498,1001356915,36.407978,52.276817,160.632385,5.168647,-1.684560,1.907205,12.290526,4.248906,46.429485
499,1001373582,37.072262,51.963669,161.124802,5.188158,-0.523518,1.729939,16.733315,-6.669199,25.999434
500,1001390249,37.435890,51.761600,161.018173,4.794770,-0.507887,1.874462,27.047829,-14.516727,4.429559
501,1001406916,37.523258,51.642387,160.346786,4.758657,-0.858909,2.039904,37.057419,-23.352003,-15.211625
502,1001423583,37.165642,51.566925,159.125854,4.356059,-1.364933,2.189433,36.158440,-33.691338,-33.166538
503,1001440250,36.139393,51.509007,157.327240,4.373453,-1.381313,2.198508,23.131887,-45.360004,-51.507908
504,1001456917,34.542892,51.446342,155.026642,4.979979,-0.815949,1.876127,12.412300,-55.303673,-67.673767
505,1001473584,32.745132,51.331623,152.402695,5.877517,-0.406206,1.547031,15.371777,-62.677307,-77.684059
506,1001490251,31.046509,51.097889,149.615494,6.552296,-0.505948,1.316825,28.659437,-69.775200,-81.226433
507,1001506918,29.572176,50.701408,146.784271,6.420909,-0.967211,1.022351,43.596348,-77.129898,-80.174606
508,1001523585,28.362986,50.134392,144.058167,5.790678,-1.760852,1.038527,53.739803,-82.771515,-74.383049
509,1001540252,27.310453,49.375950,141.507523,4.979059,-2.956075,1.457333,53.896057,-88.946266,-65.852791
510,1001556919,26.245504,48.383327,139.101089,4.193125,-3.710033,1.478083,45.111843,-98.494110,-57.606377
511,1001573586,25.193678,47.141155,136.920288,3.698097,-3.922615,0.967721,34.008984,-107.870354,-46.562603
512,1001590253,24.289915,45.632370,135.096558,3.325844,-3.890467,0.256907,25.242294,-116.369202,-30.323387
513,1001606920,23.636642,43.820126,133.723419,3.019512,-3.879519,-0.331586,19.024006,-125.708267,-8.985539
514,1001623587,23.463999,41.740540,132.832489,2.356674,-3.534180,-0.971464,26.189644,-132.639893,14.230131
515,1001640254,23.768755,39.434185,132.401596,1.645757,-3.125678,-1.423947,35.342754,-137.246582,37.792770
516,1001656921,24.399242,36.902443,132.421860,0.591374,-2.852252,-1.887542,37.309475,-140.883286,63.206993
517,1001673588,25.131916,34.186291,132.849655,-0.789786,-2.486387,-1.702244,29.266508,-141.826523,87.574249
518,1001690255,25.791555,31.284763,133.650528,-1.711510,-1.976228,-1.062912,13.811031,-142.395370,111.680084
519,1001706922,26.266718,28.277092,134.770676,-2.740948,-0.640639,-0.995049,-4.657211,-139.144684,131.942917
520,1001723589,26.420008,25.233570,136.223999,-3.268010,0.844688,-1.259184,-29.846943,-131.672119,151.138580
521,1001740256,26.115776,22.180668,138.006699,-3.751173,1.850011,-1.062390,-61.044365,-123.481895,169.209381
522,1001756923,25.293196,19.140326,140.060577,-4.214422,2.451879,-0.330151,-92.615318,-116.908501,183.333664
523,1001773590,24.674423,16.289812,142.363159,-5.089118,3.790866,-0.368912,-78.952347,-101.982178,191.832047
524,1001790257,24.722687,13.804307,145.038803,-6.029636,5.758407,-0.425500,-38.587227,-73.229309,203.456787
525,1001806924,25.099846,11.744796,148.059235,-6.614189,5.626006,-0.294854,-17.253708,-40.132534,212.628220
526,1001823591,25.348064,9.952803,151.306381,-6.789990,4.357787,-1.529517,-21.584461,-18.213621,219.192886
527,1001840258,25.681355,8.176455,154.630081,-6.619824,3.614480,-3.074928,-11.230079,-13.834750,223.897293
528,1001856925,27.009897,6.354160,157.825699,-7.771140,3.474855,-3.159852,55.634251,-16.036968,219.228073
529,1001873592,29.518562,4.563282,160.759262,-8.541806,4.060602,-0.819800,133.927185,-14.124951,205.471375
530,1001890259,32.231186,3.051962,163.133514,-7.422455,3.143953,2.368028,153.464310,-7.341769,168.789536
531,1001906926,34.269688,1.974739,164.609650,-5.456005,0.969084,3.456235,118.618721,-7.990620,109.681984
532,1001923593,35.396008,1.351484,165.115997,-4.081702,-0.278516,3.651808,66.898537,-15.802973,46.523685
533,1001940260,35.854946,1.231974,164.841568,-3.273017,0.539524,3.180358,28.108438,-17.870146,-8.968401
534,1001956927,35.941254,1.582573,164.000229,-2.849421,1.536890,2.396016,6.617106,-15.001289,-52.979488
535,1001973594,35.783970,2.287677,162.799377,-2.868560,1.970730,2.328667,-6.803720,-10.350937,-82.907921
536,1001990261,35.409176,3.280965,161.352203,-3.063684,2.228902,2.162806,-18.068409,-4.472323,-104.974846
537,1002006928,34.916515,4.499876,159.750229,-3.236189,2.658479,1.366638,-22.836451,2.109797,-120.280792
538,1002023595,34.551826,5.958993,158.057663,-3.815525,3.118646,0.474328,-12.423277,11.875188,-132.756927
539,1002040262,34.495380,7.664176,156.266022,-4.676179,3.252593,-0.013835,9.559757,21.349356,-145.694199
540,1002056929,34.559559,9.625401,154.361618,-5.537835,2.778074,0.381020,21.221497,30.465960,-159.535965
541,1002073596,34.489613,11.796725,152.255997,-6.239651,2.412489,0.553619,19.477211,34.529942,-175.883102
542,1002090263,34.163624,14.154308,149.903351,-6.651244,2.693148,0.232174,12.329917,36.796890,-193.139938
543,1002106930,33.611938,16.755093,147.291550,-6.837742,3.136352,0.281388,8.853194,42.866573,-212.167465
544,1002123597,32.925842,19.469793,144.608612,-6.039311,3.606791,-0.188648,9.073754,49.796883,-217.058258
545,1002140264,32.093647,22.208561,141.924286,-4.909122,3.115934,-0.341847,7.557619,55.220493,-215.039780
546,1002156931,31.041353,24.852747,139.243454,-3.670974,2.410864,-0.466156,1.271924,55.517078,-208.495544
547,1002173598,29.829834,27.335184,136.570175,-2.306831,2.107679,-0.685087,-1.953159,52.998699,-199.437698
548,1002190265,28.627193,29.669102,134.020798,-1.445313,2.266190,-0.833440,1.018053,54.115982,-185.477814
549,1002206932,27.679581,31.856453,131.709900,-0.730098,2.134091,-0.803256,14.237345,57.048973,-166.765427
550,1002223599,27.216908,33.884747,129.679276,-0.037326,1.703407,-0.702756,38.532665,58.381310,-146.702423
551,1002240266,27.211699,35.747398,127.961639,0.039974,1.109462,-0.340147,58.688622,58.248886,-126.145004
552,1002256933,27.302483,37.421543,126.575127,-0.312948,0.299788,0.184446,55.191521,56.255985,-105.182091
553,1002273600,27.244087,38.918549,125.476067,-0.838264,-0.807402,0.623507,37.411892,53.629314,-87.030991
554,1002290267,27.291750,40.270264,124.665581,-1.434271,-1.639250,0.649418,34.019794,52.468796,-70.258118
555,1002306934,27.488924,41.466038,124.192497,-1.607470,-2.175769,0.683302,30.564966,51.370495,-51.857414
556,1002323601,27.563408,42.512737,123.970589,-1.251747,-2.649221,0.788883,13.539057,48.655804,-37.592220
557,1002340268,27.422655,43.441315,123.979912,-0.224165,-2.713063,0.688447,-8.662726,47.141937,-25.146093
558,1002356935,27.222132,44.320950,124.231918,1.213441,-2.541272,0.471274,-22.346725,49.417999,-14.332564
559,1002373602,27.240786,45.202061,124.819672,3.342163,-2.201237,-0.350904,-23.545483,55.984341,-1.708236
560,1002390269,27.882524,46.135960,125.871292,5.821031,-1.612133,-1.417412,-6.459260,67.590492,13.385351
561,1002406936,29.543785,47.128941,127.532120,8.254183,-0.906364,-2.388138,27.407982,82.633369,31.621771
562,1002423603,32.350685,48.129364,129.855804,8.897913,-0.285805,-2.192838,65.581375,97.296074,49.959705
563,1002440270,36.101471,49.105663,132.705566,8.404653,-0.269306,-1.407859,96.922882,109.501549,60.772087
564,1002456937,40.358479,50.037426,135.823929,7.021739,-0.945544,-0.267832,113.165047,116.487022,60.984676
565,1002473604,44.321861,50.859158,138.791306,5.294363,-2.288145,1.157606,100.705055,110.288200,50.869038
566,1002490271,47.215000,51.522896,141.144363,4.175806,-3.799075,2.497820,63.770733,88.665825,33.468212
567,1002506938,48.497040,52.007668,142.497192,3.871944,-4.689619,3.058958,13.374589,54.251408,12.423860
568,1002523605,48.071293,52.327934,142.705322,4.029833,-4.775007,3.065177,-35.195774,15.987274,-8.956531
569,1002540272,46.299847,52.503643,141.908646,4.429517,-4.125058,2.316892,-68.195190,-16.744200,-27.253519
570,1002556939,43.793362,52.551281,140.458191,4.846631,-3.160550,1.407048,-81.107018,-37.975708,-39.130966
571,1002573606,41.118233,52.487186,138.648209,5.474705,-2.157344,0.800447,-74.110313,-49.973595,-45.852036
572,1002590273,38.612896,52.336590,136.627792,6.049784,-1.518755,0.326811,-54.037037,-56.866241,-50.654526
573,1002606940,36.614922,52.110279,134.636993,6.370511,-1.188956,0.008836,-25.244032,-57.948288,-49.360477
574,1002623607,35.235306,51.810970,132.765381,6.110387,-1.352254,0.335916,5.890643,-57.676773,-45.176701
575,1002640274,34.333145,51.413994,131.031204,5.147460,-1.693625,0.839392,27.655203,-58.960747,-39.151382
576,1002656941,33.640789,50.894646,129.399445,4.072774,-2.345910,1.069271,34.939625,-62.702450,-33.168167
577,1002673608,32.963009,50.219650,127.895714,3.312981,-2.659662,1.136942,29.241241,-67.858398,-25.339905
578,1002690275,32.281593,49.367966,126.593147,2.907498,-3.005119,0.869108,19.036257,-72.778969,-14.610963
579,1002706942,31.695917,48.302574,125.564735,2.818485,-3.292365,0.310170,11.546952,-78.276543,-0.250075
580,1002723609,31.260519,46.965324,124.833839,2.663713,-3.625031,-0.194325,6.511805,-86.405197,17.030834
581,1002740276,31.042725,45.329582,124.398972,2.391742,-3.851778,-0.885283,5.984161,-95.894379,35.636456
582,1002756943,31.067604,43.392708,124.275841,2.162351,-3.812067,-1.380260,6.893075,-104.835518,55.761955
583,1002773610,31.270231,41.101788,124.479012,1.804158,-3.498230,-1.916825,4.196502,-115.501465,79.198517
584,1002790277,31.581388,38.449005,125.011627,1.177561,-2.672570,-2.300283,-1.545385,-125.573181,104.285736
585,1002806944,32.085079,35.521503,125.861206,0.254027,-1.914957,-2.537606,-0.220282,-130.311646,127.576721
586,1002823611,33.201923,32.447521,126.960091,-0.299592,-0.918535,-3.036198,30.367107,-128.371292,145.858521
587,1002840278,34.879219,29.265219,128.359146,-1.027129,0.506838,-2.389066,57.779877,-120.434036,166.928574
588,1002856945,36.416443,26.067049,130.036331,-3.199086,1.470225,-0.353270,45.701752,-106.535439,184.587967
589,1002873612,36.702423,22.872881,131.908981,-5.291886,1.792946,2.050562,-29.168310,-95.562691,196.625244
590,1002890279,35.384159,19.703985,133.929245,-5.022065,2.241950,1.885812,-122.861633,-89.817360,203.520752
591,1002906946,33.169098,16.565941,136.166351,-3.479825,3.088716,-0.376269,-174.421860,-86.276443,211.772385
592,1002923613,31.029457,13.459860,138.756989,-3.074995,4.635815,-1.742851,-168.382187,-80.616150,226.532196
593,1002940280,29.266228,10.470532,141.749588,-4.659811,5.865192,-0.654691,-142.762451,-69.380219,242.280853
594,1002956947,27.523417,7.765643,145.005066,-6.626101,6.288464,1.467260,-135.266861,-53.544765,247.135696
595,1002973614,25.721930,5.427334,148.345337,-8.061543,6.237502,1.561985,-130.858246,-38.694523,241.139633
596,1002990281,24.042263,3.501112,151.588196,-8.778990,5.627740,1.229307,-115.679131,-25.709007,224.883408
597,1003006948,22.695490,2.059767,154.486618,-8.049397,4.530743,0.873200,-89.010963,-12.970300,194.026428
598,1003023615,22.038090,1.097646,156.763901,-6.195164,3.235433,0.208517,-42.994011,-3.890897,148.543243
599,1003040282,22.426208,0.575229,158.190933,-4.210042,2.504238,-0.517377,22.243843,0.897580,91.372818
600,1003056949,23.599070,0.439712,158.735306,-3.484484,1.781978,0.169613,70.290092,2.809498,33.505703
601,1003073616,24.910723,0.615923,158.403320,-3.426117,1.238700,0.923127,79.090546,-1.015068,-22.239227
602,1003090283,25.869190,0.995754,157.348541,-3.707120,0.854002,1.142294,58.602791,-9.013771,-66.678879
603,1003106950,26.476051,1.509003,155.854721,-4.018565,0.996235,1.068807,38.573597,-14.354592,-93.743828
604,1003123617,26.895699,2.165440,154.114853,-4.019755,1.544917,0.724416,28.725368,-14.132689,-110.652260
605,1003140284,27.307632,3.001545,152.186478,-4.069049,2.344076,0.241940,30.127018,-10.464188,-125.492844
606,1003156951,28.017422,4.083321,150.056778,-4.407674,3.014202,-0.185784,50.672825,-4.186723,-142.839645
607,1003173618,29.059546,5.408992,147.760468,-4.819054,2.835531,0.121774,74.109306,1.814106,-158.377686
608,1003190285,30.098820,6.904242,145.350876,-5.632126,2.125893,0.885230,78.038612,4.607526,-169.048355
609,1003206952,30.914059,8.557139,142.813614,-6.436099,2.426630,1.161461,69.565575,6.405585,-180.074509
610,1003223619,31.463923,10.385290,140.164642,-6.898602,3.402884,0.862893,59.314983,10.186895,-190.680893
611,1003240286,31.819838,12.424573,137.406494,-6.382429,3.402636,0.669543,54.244320,16.604158,-202.061127
612,1003256953,31.955160,14.655292,134.591827,-5.701385,3.370726,0.685860,47.820019,24.449261,-209.884369
613,1003273620,31.776459,17.033447,131.860413,-5.026076,3.473414,0.742356,34.186684,35.490017,-209.006012
614,1003290287,31.316236,19.547743,129.319138,-3.781015,3.357985,0.333421,20.401735,50.361137,-202.088577
615,1003306954,30.759542,22.162394,127.000023,-2.511636,2.449907,-0.141577,16.295929,64.916481,-192.091705
616,1003323621,30.261450,24.823141,124.954361,-1.650587,1.567524,-0.384167,19.198915,77.936470,-177.825394
617,1003340288,29.864647,27.510559,123.220016,-1.252169,1.332033,-0.638510,22.232912,90.315849,-161.408051
618,1003356955,29.552275,30.220238,121.843102,-0.779142,1.031203,-1.151783,21.291050,102.903191,-143.221008
619,1003373622,29.461687,32.881207,120.829079,-0.183863,0.114475,-1.207202,26.545094,110.965210,-123.566605
620,1003390289,29.463875,35.364182,120.117638,0.381763,-0.456710,-0.435892,24.222410,109.881577,-103.850517
621,1003406956,29.443235,37.667698,119.669449,0.549744,-0.671644,-0.056107,14.908607,107.270638,-86.589111
622,1003423623,29.550650,39.830620,119.586914,1.156880,-0.857236,-0.034624,9.692744,108.599350,-67.069183
623,1003440290,30.013435,41.857014,119.985535,2.293691,-1.052502,-0.060301,12.276349,112.054298,-44.494144
624,1003456957,31.022739,43.723476,120.944603,2.329566,-0.973440,0.073117,21.620289,115.454338,-20.295645
625,1003473624,32.625343,45.396763,122.386307,1.608755,-1.141388,1.213737,35.613300,115.337578,-0.373529
626,1003490291,34.555279,46.909782,124.090492,1.765739,-1.314233,2.406557,42.205769,112.337448,8.983479
627,1003506958,36.558598,48.283421,125.902519,2.915938,-1.717328,1.985164,40.076641,107.206886,11.922582
628,1003523625,38.672318,49.513737,127.818741,3.868414,-2.337993,0.575066,40.351620,102.127129,15.022195
629,1003540292,40.732811,50.632229,129.868103,4.024632,-2.640701,-0.250368,29.505642,99.558891,18.061340
630,1003556959,42.374817,51.659760,132.008362,4.105072,-2.571598,0.219668,-1.302861,97.080910,19.611881
631,1003573626,43.497768,52.584164,134.212296,4.866197,-2.057030,1.000208,-36.812378,93.417404,21.885094
632,1003590293,44.240879,53.384220,136.432983,5.697816,-1.442423,0.939141,-61.610172,87.702507,24.798666
633,1003606960,44.716446,54.029903,138.560272,5.721260,-1.893418,0.699773,-74.141174,78.079590,27.005545
634,1003623627,44.709835,54.474026,140.367767,4.913518,-2.932987,1.048233,-88.208397,61.019154,26.527788
635,1003640294,43.989590,54.694443,141.593964,4.694580,-3.754906,1.125205,-102.965096,36.762520,21.503462
636,1003656961,42.660553,54.690098,142.116623,5.376254,-4.075215,0.730428,-105.126846,9.743044,13.631618
637,1003673628,41.063553,54.476673,141.943817,6.112792,-3.780762,0.235868,-87.160042,-16.059071,4.345398
638,1003690295,39.692524,54.123959,141.201309,6.435929,-2.953479,0.007418,-45.872627,-35.480160,-5.808403
639,1003706962,38.859779,53.690910,140.035797,6.365125,-2.194826,0.278931,6.757288,-48.716072,-15.143685
640,1003723629,38.678684,53.203079,138.615387,6.288197,-1.918641,0.496891,57.809135,-57.131779,-20.937813
641,1003740296,38.882309,52.668579,136.963364,5.966339,-2.106731,0.674927,91.529884,-64.950424,-26.169125
642,1003756963,39.184975,52.065437,135.134506,5.407847,-2.497216,0.861238,105.280991,-72.840904,-28.931080
643,1003773630,39.328930,51.341892,133.102692,4.519191,-2.792423,1.161425,104.538109,-83.958107,-30.696909
644,1003790297,39.196941,50.508472,130.968964,3.780215,-2.842862,1.554878,91.698692,-92.325516,-30.492786
645,1003806964,38.706852,49.566738,128.866043,3.004646,-2.692075,2.000602,67.538338,-97.427513,-27.154451
646,1003823631,37.832035,48.525475,126.889046,2.664558,-2.608459,2.106480,37.336861,-99.746094,-21.995256
647,1003840298,36.733624,47.411179,125.139641,2.555892,-2.613213,1.785374,12.307343,-98.312004,-15.063965
648,1003856965,35.531960,46.223270,123.671761,2.406028,-2.597552,1.563831,-7.630196,-95.655907,-6.292042
649,1003873632,34.297062,44.951225,122.507439,2.210850,-2.643641,1.252935,-23.937811,-93.123688,3.952124
650,1003890299,33.231205,43.588158,121.689850,2.127288,-2.572310,0.652045,-29.453323,-90.075974,16.616903
651,1003906966,32.448936,42.124866,121.240570,1.950369,-2.377955,0.245104,-28.344446,-87.051636,31.376818
652,1003923633,31.992374,40.562138,121.196503,1.558555,-1.940623,-0.085925,-25.389908,-82.956413,48.682835
653,1003940300,31.626396,38.891064,121.567398,0.654814,-1.622962,-0.288265,-35.919441,-78.765038,67.763466
654,1003956967,31.142836,37.088310,122.335411,0.076917,-1.278201,-0.701289,-57.117065,-76.009560,87.702919
655,1003973634,30.683084,35.177963,123.454239,-0.202413,-0.728906,-1.558225,-66.909500,-73.071327,105.765305
656,1003990301,30.385019,33.158958,124.959831,-0.515366,-0.179382,-1.950179,-68.364693,-68.954712,126.285980
657,1004006968,30.160603,30.976452,126.849007,-1.026751,0.414402,-2.046014,-73.392159,-67.254753,149.328735
658,1004023635,29.731010,28.619844,129.086197,-1.792865,1.442853,-2.125744,-92.231010,-66.952202,171.867416
659,1004040302,29.025593,26.112947,131.623688,-2.334568,1.961341,-2.250976,-112.059540,-67.313950,191.960358
660,1004056969,28.277632,23.453289,134.403961,-2.348364,2.373982,-2.569888,-114.556122,-69.985481,209.762558
661,1004073636,27.625866,20.687073,137.414337,-3.146532,3.726768,-2.926536,-106.730186,-70.706245,225.987198
662,1004090303,26.991474,17.895485,140.644241,-4.604707,4.740522,-2.472198,-101.848770,-67.450485,239.695633
663,1004106970,26.054193,15.058685,144.011887,-5.800422,4.607196,-2.202703,-113.302292,-68.294075,249.695023
664,1004123637,24.811045,12.129028,147.416077,-6.413882,4.983958,-2.034575,-122.343811,-75.998474,255.090225
665,1004140304,23.723862,9.288813,150.813507,-7.794326,6.349452,-0.995370,-102.865318,-75.533081,252.935074
666,1004156971,23.146576,6.773748,154.104797,-9.259905,6.570248,0.553289,-61.999615,-63.174519,239.710907
667,1004173638,23.208399,4.744326,157.083786,-9.215329,5.058832,1.068265,-14.013056,-44.423618,211.682053
668,1004190305,23.675129,3.238267,159.501755,-7.683127,3.070498,1.074026,18.114178,-27.804111,168.994675
669,1004206972,24.163137,2.300134,161.080841,-5.485113,1.559535,1.588127,24.915108,-15.553185,109.586571
670,1004223639,24.712862,1.933543,161.745636,-3.935979,1.420037,1.680255,31.722883,-5.994564,45.644840
671,1004240306,25.574823,2.040642,161.589340,-3.290705,2.111473,1.226621,52.255241,-0.617580,-10.961962
672,1004256973,26.627787,2.486725,160.817535,-3.368564,2.355924,1.653650,65.218407,1.230996,-53.081669
673,1004273640,27.675032,3.194046,159.575623,-3.763284,2.290002,1.862822,66.735229,1.360276,-85.346031
674,1004290307,28.681768,4.164018,157.954575,-4.376682,2.344744,1.417875,66.851425,3.031978,-112.803741
675,1004306974,29.720558,5.452060,155.987564,-5.308441,2.578437,1.017078,72.418785,7.654663,-140.131912
676,1004323641,30.730480,7.088184,153.768417,-6.498689,2.848245,1.189525,75.328735,15.771269,-163.554642
677,1004340308,31.494307,9.053929,151.373398,-7.521389,2.729794,1.182107,66.189735,25.043835,-182.542831
678,1004356975,31.619959,11.263232,148.816299,-8.469244,2.711626,1.207211,34.783077,31.509756,-197.858124
679,1004373642,30.929686,13.676661,146.099930,-9.187605,3.412783,0.583452,-6.037586,38.747490,-210.993164
680,1004390309,29.562729,16.242596,143.253403,-9.019014,3.825199,-0.376977,-37.739792,47.489853,-219.913712
681,1004406976,27.674500,18.894352,140.394333,-7.431382,3.779167,-0.880540,-61.328667,58.956814,-219.604385
682,1004423643,25.439537,21.627111,137.565475,-5.859436,3.655970,-1.070096,-75.140129,73.112068,-215.580933
683,1004440310,23.128168,24.407217,134.889725,-4.171009,3.297000,-1.267927,-75.741714,88.928932,-203.141235
684,1004456977,21.093464,27.182186,132.532059,-1.950558,2.468372,-1.329326,-60.380096,103.977943,-180.527252
685,1004473644,19.517883,29.845530,130.619797,-0.145272,1.529494,-1.472773,-39.636883,112.559166,-149.874008
686,1004490311,18.499996,32.361977,129.186356,0.323213,0.695324,-1.943178,-16.532562,116.449387,-118.672081
687,1004506978,18.025175,34.720562,128.285110,0.192728,0.140415,-2.243676,1.492072,117.950676,-87.017036
688,1004523645,17.990282,36.881573,127.912285,0.229700,-0.641120,-1.731326,11.087436,115.388191,-57.207512
689,1004540312,18.283129,38.844032,128.079132,0.542937,-1.344628,-0.883915,11.523300,112.042877,-29.018154
690,1004556979,18.894903,40.568447,128.792343,1.363054,-2.013009,-0.616476,9.467876,106.240410,-1.656363
691,1004573646,20.093573,42.071487,130.105698,2.313125,-2.533854,-1.228837,19.992775,102.430130,25.816364
692,1004590313,22.136852,43.356922,132.121277,3.085386,-2.880460,-1.654513,40.663986,101.613739,55.228565
693,1004606980,25.236927,44.406544,134.957352,3.544670,-2.843562,-2.000784,68.150528,104.583359,87.139778
694,1004623647,29.255764,45.222076,138.501221,2.942071,-3.185622,-1.535953,91.356636,110.182831,111.825195
695,1004640314,33.591873,45.839268,142.383667,0.884856,-4.125019,-0.677725,94.027954,114.288315,120.064812
696,1004656981,37.403862,46.299923,146.261063,-1.064666,-5.847044,0.788630,61.284878,113.822784,115.467789
697,1004673648,40.591339,46.643681,149.938507,-0.863593,-7.117667,2.639648,31.395840,109.243668,105.227394
698,1004690315,43.169991,46.898491,153.516830,0.185051,-5.373194,3.895560,-1.585353,107.125107,99.379013
699,1004706982,45.055836,47.225555,156.975388,2.508108,-2.628514,3.649385,-38.629070,110.049667,87.931519
700,1004723649,46.809685,47.751610,160.379364,4.983469,-1.181903,2.455013,-45.175053,118.672638,73.417488
701,1004740316,48.990074,48.429325,163.828720,6.574758,-1.162864,1.224190,-23.045208,127.379822,62.637657
702,1004756983,51.845192,49.126308,167.334335,7.589315,-1.127365,0.391372,13.255243,131.007233,56.230629
703,1004773650,54.901253,49.749302,170.686218,7.275760,-1.112079,1.506864,30.743393,124.782555,48.183937
704,1004790317,57.286392,50.323101,173.487000,7.132523,-0.813880,2.842918,14.491184,106.308372,31.816917
705,1004806984,58.717701,50.950726,175.509064,7.810186,0.268068,2.825184,-7.727016,82.728943,9.034493
706,1004823651,59.299294,51.668816,176.684906,8.196226,0.993332,2.482284,-19.968843,57.504906,-14.010685
707,1004840318,59.228970,52.469269,176.995819,8.348239,1.291262,2.033573,-18.724709,31.910814,-35.179749
708,1004856985,58.784454,53.298302,176.566162,7.930715,1.089714,1.679131,-5.902450,9.780794,-50.387360
709,1004873652,58.057442,54.105167,175.588531,7.024474,0.149596,2.019797,3.872643,-6.736173,-59.137432
710,1004890319,56.965870,54.843040,174.113266,6.117187,-0.838248,2.334424,6.762972,-22.117111,-64.660149
711,1004906986,55.506596,55.508465,172.144882,5.843759,-1.232608,2.182037,9.618265,-36.402687,-70.344345
712,1004923653,53.758854,56.071228,169.717117,5.497682,-1.746325,1.757077,15.820523,-49.770706,-74.591339
713,1004940320,51.847038,56.462021,166.881027,5.226072,-2.135605,1.570098,27.031248,-63.635868,-75.442101
714,1004956987,49.900787,56.618153,163.778091,4.443513,-2.647830,1.764295,38.777721,-76.266441,-71.665215
715,1004973654,47.921078,56.512291,160.544617,3.643374,-3.020943,2.043856,43.350353,-87.293007,-65.085007
716,1004990321,45.946430,56.135204,157.281464,2.952823,-3.165216,1.830671,44.688030,-97.322060,-57.214336
717,1005006988,44.121624,55.485519,154.152634,2.477542,-3.060005,1.495592,46.034210,-104.752335,-46.576630
718,1005023655,42.638382,54.547256,151.326752,1.959104,-2.930403,0.910042,50.156769,-110.259933,-31.594061
719,1005040322,41.514210,53.328552,148.870834,1.304251,-2.826324,0.328093,51.907795,-114.988480,-14.987201
720,1005056989,40.658451,51.814617,146.782730,0.673768,-2.845621,-0.120939,48.384438,-121.102455,2.702936
721,1005073656,40.015118,50.011650,145.112518,0.076792,-2.714662,-0.461365,39.425858,-125.962067,22.262625
722,1005090323,39.583874,47.884266,143.868927,-0.308073,-2.571285,-1.000692,30.633938,-132.048935,44.460880
723,1005106990,39.508106,45.509560,142.988312,-1.121790,-2.019985,-1.698481,34.140648,-135.566757,63.177605
724,1005123657,39.664852,42.947170,142.476532,-1.690877,-1.147123,-2.110613,31.054886,-135.134842,81.416611
725,1005140324,39.817940,40.241356,142.268417,-2.228801,-0.622058,-1.928719,17.699692,-133.434738,97.011032
726,1005156991,39.683540,37.378948,142.304001,-2.702664,-0.523008,-1.495563,-9.177524,-133.608063,111.493141
727,1005173658,39.410847,34.367374,142.512329,-3.008220,-0.349836,-1.981454,-23.465984,-135.511307,123.245697
728,1005190325,39.252251,31.268143,142.896347,-3.595821,0.771551,-2.739410,-21.790211,-134.187210,133.210205
729,1005206992,39.192791,28.156595,143.451111,-3.936773,2.081902,-3.126595,-19.862309,-128.966827,140.812805
730,1005223659,38.874241,25.119596,144.174469,-4.656816,2.655744,-2.184533,-38.370293,-119.716484,145.244446
731,1005240326,37.930611,22.217600,145.040924,-4.950978,2.353635,-0.493843,-77.283371,-109.465965,145.812241
732,1005256993,36.407845,19.444538,146.073410,-4.582211,2.140408,0.477460,-113.187546,-100.181267,146.987732
733,1005273660,34.513309,16.817043,147.349014,-4.020799,3.072890,-0.016857,-137.282135,-88.775658,151.020996
734,1005290327,32.588165,14.342183,148.871826,-3.377760,3.965445,-1.294272,-139.843491,-77.656792,155.719910
735,1005306994,31.041355,12.050503,150.587051,-3.776891,4.189013,-1.457362,-116.100525,-66.547813,157.920593
736,1005323661,29.945183,9.926734,152.458664,-4.548619,4.131968,-0.897445,-86.975098,-56.370316,159.929184
737,1005340328,29.162474,7.978817,154.392731,-5.104224,3.872343,0.109272,-64.822777,-47.615383,157.630035
738,1005356995,28.516474,6.245052,156.241760,-5.422605,3.613511,0.672349,-52.295219,-40.493176,146.872131
739,1005373662,28.093794,4.798631,157.857666,-5.094168,3.565146,0.490774,-34.490936,-33.104324,126.366531
740,1005390329,28.209015,3.711651,159.132950,-4.619154,3.280017,0.442341,1.435253,-23.945625,98.291679
741,1005406996,28.832012,3.052989,159.968475,-4.210142,2.716192,0.735307,34.624828,-13.260481,63.076847
742,1005423663,29.707651,2.856492,160.253006,-3.982000,2.079938,0.712286,51.864361,-4.370984,20.865788
743,1005440330,30.712206,3.052919,159.959366,-3.809693,1.763353,0.464767,61.387371,-1.082498,-20.913141
744,1005456997,31.776342,3.531126,159.166992,-3.858145,1.607637,0.412677,66.780869,-2.497036,-55.246647
745,1005473664,32.585342,4.205471,157.949707,-4.263456,1.287709,0.831136,53.667202,-6.969328,-83.010841
746,1005490331,32.758305,5.050015,156.337860,-5.098243,1.375939,0.886100,18.377102,-11.783131,-108.291130
747,1005506998,32.393448,6.066483,154.370468,-5.474654,2.107375,0.068566,-10.265964,-14.260219,-131.637924
748,1005523665,32.034000,7.221468,152.216751,-5.431103,2.825842,-0.924294,-6.430384,-12.181188,-145.339066
749,1005540332,32.209660,8.534461,150.051651,-5.198349,3.352663,-1.256934,28.517736,-4.086051,-150.677185
750,1005556999,32.888725,10.033481,147.940598,-5.159799,3.219210,-0.843548,61.338581,6.180409,-153.575424
751,1005573666,33.558006,11.708295,145.850906,-5.826561,2.340501,0.129582,63.957668,14.222551,-157.887985
752,1005590333,33.776993,13.542382,143.717621,-6.294142,2.142297,0.752548,41.265915,19.969736,-164.791367
753,1005607000,33.567322,15.542300,141.581314,-6.086440,2.552172,0.630300,19.751329,28.695719,-169.625778
754,1005623667,33.335140,17.733616,139.546967,-5.121170,2.696993,-0.068722,21.153332,42.861568,-169.899109
755,1005640334,33.313263,20.084862,137.643829,-3.530388,1.991442,-0.344619,35.819237,56.158337,-167.619553
756,1005657001,33.400845,22.440271,136.014603,-2.172310,1.033663,-0.374891,40.825783,65.575974,-153.658737
757,1005673668,33.514965,24.782093,134.717468,-2.292601,0.633156,-0.076722,38.137436,75.530861,-136.821915
758,1005690335,33.611813,27.134823,133.788620,-2.327998,0.764879,0.441007,30.323202,87.542549,-119.661171
759,1005707002,33.647655,29.508600,133.201935,-1.560719,0.575607,0.842559,18.968414,99.039879,-104.543457
760,1005723669,33.665520,31.907742,132.953888,-0.444193,0.444914,1.105864,8.794387,110.333145,-90.294472
761,1005740336,33.752892,34.301662,133.104248,0.898178,0.023339,0.910516,0.441421,121.280258,-73.287300
762,1005757003,34.144676,36.656750,133.808746,1.775164,-0.443903,-0.017766,-0.896753,134.033661,-50.210819
763,1005773670,35.145420,38.931442,135.217361,2.134383,-1.181949,-0.493949,8.382271,147.829727,-22.484694
764,1005790337,36.800426,41.061726,137.291534,2.291646,-1.391185,0.059187,19.444153,157.007690,2.248616
765,1005807004,38.801685,42.939232,139.880661,1.630983,-2.235888,1.453298,16.264830,157.317810,22.354553
766,1005823671,40.677994,44.540848,142.780823,1.681278,-2.851625,1.603518,-7.579833,151.803879,35.424847
767,1005840338,42.253929,45.907391,145.808914,1.493552,-3.650712,1.061323,-34.256413,143.706970,41.792404
768,1005857005,43.481369,47.052223,148.839844,2.091253,-4.324460,0.708207,-58.051064,133.060272,45.250950
769,1005873672,44.434414,48.039032,151.764603,3.240978,-4.126113,0.439757,-72.113892,122.358772,44.373436
770,1005890339,45.377453,48.937630,154.497849,4.057934,-3.625959,0.599122,-66.039291,112.427490,39.132881
771,1005907006,46.366795,49.811844,156.931824,4.317142,-2.785376,0.965855,-51.296844,102.273781,28.778498
772,1005923673,47.242207,50.689617,158.905624,4.594559,-2.100942,0.984087,-38.341042,88.754105,13.668463
773,1005940340,48.072819,51.549351,160.390152,5.703210,-1.344564,0.502708,-19.310013,73.562653,-0.229674
774,1005957007,49.059738,52.320179,161.444611,6.841303,-0.556649,0.240472,9.598917,57.338844,-8.609173
775,1005973674,50.166073,52.948833,162.082626,7.342545,0.259878,0.451226,36.154232,39.620529,-13.412261
776,1005990341,51.201527,53.443375,162.267197,7.366509,0.889906,0.805264,53.462955,21.411667,-18.475882
777,1006007008,51.980091,53.808712,162.034729,7.063547,0.892612,1.114690,58.152660,4.614684,-22.021589
778,1006023675,52.294197,54.013626,161.395081,6.264867,0.507228,1.530617,50.070850,-12.824897,-23.276941
779,1006040342,51.918678,54.084702,160.279053,5.710165,-0.047219,1.849392,31.889416,-30.929003,-27.195889
780,1006057009,50.824871,54.054226,158.692032,5.496724,-0.622355,1.985423,11.695408,-47.319977,-33.128738
781,1006073676,49.196575,53.912632,156.712387,5.693462,-1.070284,1.818590,-1.400989,-61.498695,-38.043621
782,1006090343,47.431286,53.645302,154.573196,5.925613,-1.184399,1.117319,-2.144023,-69.835724,-38.121906
783,1006107010,45.887146,53.241570,152.461639,5.786996,-1.553394,0.858359,9.350413,-74.040009,-33.827953
784,1006123677,44.659912,52.684155,150.375275,4.803662,-2.261710,0.891565,26.522436,-79.640709,-28.949850
785,1006140344,43.632675,51.975677,148.322723,3.360812,-3.262602,1.496351,36.079144,-85.459770,-24.043110
786,1006157011,42.569260,51.102242,146.267090,2.028665,-3.832692,1.622265,33.006687,-93.222733,-19.849489
787,1006173678,41.336571,50.052746,144.215805,1.394935,-4.012558,1.160933,21.350506,-101.625618,-15.676129
788,1006190345,40.027031,48.803852,142.246033,1.409115,-3.831377,0.444844,11.440667,-109.482208,-9.095846
789,1006207012,38.843834,47.340439,140.454803,1.337477,-3.387916,-0.064843,9.204921,-115.987434,0.660538
790,1006223679,37.937363,45.707970,138.944244,0.909896,-2.759610,-0.353251,11.618151,-118.057922,12.297818
791,1006240346,37.413017,43.946476,137.787476,0.371674,-2.238374,-0.614478,17.702013,-116.301430,25.983652
792,1006257013,37.168297,42.070419,136.984818,-0.320033,-1.798223,-0.746858,18.398890,-113.456711,40.525993
793,1006273680,36.909153,40.066776,136.475998,-0.888398,-1.591742,-0.700945,4.739244,-112.394531,54.384563
794,1006290347,36.528172,37.931873,136.243057,-1.095583,-1.367097,-0.788420,-13.832972,-111.742004,68.219269
795,1006307014,36.126556,35.660797,136.308609,-1.066067,-1.285969,-1.026566,-26.224632,-110.485138,83.595978
796,1006323681,35.813946,33.233452,136.646973,-1.292456,-1.129707,-1.583346,-30.015612,-110.605247,99.427414
797,1006340348,35.473782,30.655214,137.226883,-1.681349,-0.477672,-1.913250,-38.598057,-111.073952,114.471748
798,1006357015,34.897358,27.932447,138.044250,-1.875222,0.026781,-1.755992,-58.358959,-111.436707,129.415985
799,1006373682,34.039497,25.060934,139.101883,-1.616033,0.195393,-1.377517,-79.561142,-112.461548,144.653137
800,1006390349,33.406170,22.062548,140.401291,-1.273656,0.327329,-1.483113,-68.946762,-112.510170,159.635040
801,1006407016,33.620647,19.024628,141.935898,-2.188768,1.811862,-2.086556,-19.243675,-106.914169,172.836456
802,1006423683,34.375744,16.099497,143.678772,-3.713154,3.398965,-1.148151,13.941566,-92.295074,181.099762
803,1006440350,35.025181,13.432398,145.575851,-5.170491,3.120965,0.390637,10.144298,-71.434990,181.888199
804,1006457017,34.856895,10.977462,147.491211,-6.208077,1.984427,1.175891,-34.190350,-58.935101,176.729828
805,1006473684,33.641312,8.650905,149.411240,-6.596500,1.618548,0.619651,-92.357948,-54.019421,172.682556
806,1006490351,31.742607,6.460797,151.343338,-6.245887,2.358502,0.147278,-128.948242,-51.027298,167.977737
807,1006507018,29.685270,4.507827,153.259384,-6.123972,3.559417,0.022143,-134.213028,-44.793392,158.515732
808,1006523685,28.017616,2.944698,155.007828,-5.852545,4.068157,-0.197662,-106.671982,-34.123665,137.219559
809,1006540352,27.194489,1.844913,156.364883,-4.902209,3.741333,-0.585020,-52.593815,-23.261223,102.935211
810,1006557019,27.321093,1.203950,157.208176,-4.093575,2.983438,-0.600012,6.442541,-13.499744,62.836681
811,1006573686,28.191442,0.991749,157.470840,-3.547455,2.543988,-0.310494,52.113560,-6.400890,20.132275
812,1006590353,29.494686,1.143499,157.138077,-3.223952,2.276271,-0.038966,78.760445,-4.122756,-21.624519
813,1006607020,30.875973,1.568260,156.253693,-3.227214,1.867649,0.317086,84.326111,-7.106354,-58.417961
814,1006623687,32.064056,2.177548,154.917755,-3.511428,1.753745,0.795195,74.094658,-13.105362,-87.166016
815,1006640354,33.012920,2.983342,153.229874,-4.088370,2.167621,1.061424,61.678898,-16.120028,-111.050766
816,1006657021,33.753258,4.022398,151.256744,-4.744389,2.508442,0.523012,51.837963,-15.421321,-132.729858
817,1006673688,34.505863,5.298583,149.060852,-5.390100,2.642578,0.066966,56.041553,-12.754780,-151.424652
818,1006690355,35.459358,6.824016,146.696350,-6.000722,3.203688,-0.090261,72.359779,-8.351172,-167.828506
819,1006707022,36.498989,8.618745,144.172531,-6.846639,4.084021,-0.136121,82.885193,-3.471713,-184.464890
820,1006723689,37.401821,10.637876,141.492340,-6.914880,4.457547,-0.087429,81.221825,-0.945916,-199.309647
821,1006740356,37.957516,12.766599,138.672577,-5.996795,3.872858,0.109782,67.811699,-2.634407,-208.975983
822,1006757023,38.010971,14.934421,135.787354,-4.926899,3.727469,0.532108,44.806065,-3.380887,-212.318039
823,1006773690,37.599285,17.127245,132.981949,-4.087186,3.874364,0.138593,21.942225,2.336233,-208.267792
824,1006790357,37.032429,19.319893,130.432175,-3.450788,3.421813,-0.657582,13.988844,14.093013,-195.125336
825,1006807024,36.641094,21.475853,128.273605,-2.735236,3.171828,-0.978797,21.807472,28.312201,-174.522995
826,1006823691,36.491760,23.571665,126.609390,-1.611111,3.079825,-0.981212,29.430134,43.614368,-148.815338
827,1006840358,36.549751,25.627386,125.502022,-0.593362,2.800831,-0.524132,31.275021,60.742149,-121.777275
828,1006857025,36.896309,27.641571,124.936226,-0.099028,1.943958,-0.027053,36.149036,76.296608,-96.414291
829,1006873692,37.495773,29.573788,124.928833,0.171046,1.032560,0.280736,36.318153,89.687523,-70.227608
830,1006890359,38.393486,31.380505,125.491776,0.588594,0.149009,-0.052881,36.872269,100.959595,-43.530205
831,1006907026,39.749203,33.025898,126.656914,0.386221,-0.739288,-0.463566,44.227657,111.495895,-16.127829
832,1006923693,41.612095,34.447643,128.458755,-0.028347,-1.385462,-0.614282,51.871628,120.854927,12.749703
833,1006940360,43.735321,35.617413,130.782028,-0.645071,-2.119597,0.114100,47.517727,126.520065,36.517567
834,1006957027,45.853199,36.547375,133.483337,-0.651163,-2.607401,0.767006,31.760424,129.429443,53.813683
835,1006973694,47.925579,37.241798,136.551132,0.237229,-3.058488,0.726121,13.983979,133.477310,70.353943
836,1006990361,50.030952,37.730671,139.947647,-0.040420,-3.315578,1.251677,2.447898,138.785965,84.174881
837,1007007028,51.910789,38.034805,143.557388,0.239284,-3.529510,1.811595,-20.050797,141.809219,93.639084
838,1007023695,53.440926,38.209919,147.257919,0.641331,-3.824202,1.964166,-45.101597,142.795044,97.721191
839,1007040362,54.670448,38.300571,150.973480,1.628959,-3.927433,1.858160,-64.093628,142.440277,98.526703
840,1007057029,55.749756,38.382912,154.650436,2.884622,-3.392609,1.347086,-71.931374,142.442474,94.848526
841,1007073696,56.845997,38.504051,158.292038,4.088520,-2.646566,1.210546,-69.899956,143.916412,89.095932
842,1007090363,58.181087,38.688324,161.889374,5.523290,-1.617261,0.895321,-54.366802,145.742188,81.471878
843,1007107030,59.814667,38.968601,165.391541,6.088134,-0.871161,1.199073,-33.557152,146.477127,70.108292
844,1007123697,61.513046,39.429146,168.639511,6.557643,-0.326795,2.079633,-21.078348,142.691589,50.125443
845,1007140364,62.920681,40.202637,171.416489,7.250278,-0.052648,2.801410,-22.036108,132.357162,18.837547
846,1007157031,63.854832,41.396690,173.567841,8.066500,-0.050898,3.070507,-28.091713,116.951691,-20.026083
847,1007173698,64.226936,43.060158,175.003693,8.297363,-0.124887,2.739885,-35.363739,98.540459,-61.542416
848,1007190365,64.035843,45.123421,175.712616,8.225586,-0.255753,1.987036,-40.849419,78.997330,-97.777901
849,1007207032,63.298630,47.447315,175.793930,7.525104,-0.575971,1.578005,-47.538101,62.361309,-123.171577
850,1007223699,61.946915,49.838718,175.283707,6.565567,-1.224815,1.657109,-57.892616,45.499088,-136.402283
851,1007240366,60.059700,52.150913,174.242584,5.695683,-1.856497,1.710570,-64.455696,30.335613,-140.072632
852,1007257033,57.753647,54.271225,172.835495,5.029609,-2.254936,1.590984,-70.512955,19.867659,-134.710556
853,1007273700,55.181602,56.145775,171.036057,4.630572,-2.312061,1.501513,-65.423279,8.233871,-127.436363
854,1007290367,52.486305,57.695709,168.818619,4.421125,-2.445527,1.367370,-50.002537,-6.301856,-117.567406
855,1007307034,49.992733,58.858704,166.301254,4.027790,-2.619181,1.169519,-20.908236,-20.803949,-103.765671
856,1007323701,47.795670,59.587860,163.558517,2.911004,-3.362314,1.129331,9.787345,-37.250648,-87.953949
857,1007340368,45.727432,59.878426,160.616959,1.529222,-3.621663,0.994538,28.562122,-55.430008,-73.268837
858,1007357035,43.613953,59.733173,157.573288,1.166091,-3.419107,0.602012,31.254215,-73.335693,-58.822533
859,1007373702,41.561836,59.159813,154.586853,1.143549,-3.136068,-0.073593,31.402126,-89.536896,-43.420177
860,1007390369,39.873192,58.152588,151.854126,1.082510,-2.762503,-0.677318,38.939079,-104.012245,-24.864880
861,1007407036,38.906227,56.736542,149.508804,0.934558,-2.484993,-1.404304,60.814640,-116.293259,-4.250980
862,1007423703,38.685226,54.975094,147.659637,0.112096,-2.118758,-1.999006,78.787773,-123.974670,18.039560
863,1007440370,38.737362,52.889114,146.196075,-1.004033,-1.996345,-2.063558,74.329300,-132.584351,38.290543
864,1007457037,38.647705,50.524544,145.028641,-1.724085,-1.754176,-1.762853,49.815174,-140.462494,55.169464
865,1007473704,38.400349,47.861141,144.128281,-1.636108,-1.598568,-1.806124,26.272266,-149.606812,72.267685
866,1007490371,38.047661,44.944195,143.508102,-2.013895,-0.810782,-2.177920,6.009389,-155.967072,88.481674
867,1007507038,37.460831,41.820633,143.181946,-1.668605,0.226480,-2.507001,-21.544769,-159.484360,103.850517
868,1007523705,36.621685,38.556820,143.161270,-1.787261,1.057387,-2.068897,-49.322742,-159.478745,117.555374
869,1007540372,35.739773,35.237732,143.473511,-2.469820,2.119910,-1.652917,-63.938393,-154.490829,129.998352
870,1007557039,35.076527,31.969442,144.127640,-2.519523,3.529187,-1.912943,-61.296196,-143.474030,140.597275
871,1007573706,34.669472,28.819967,145.087601,-2.793030,4.627433,-1.722472,-53.351990,-129.201004,149.132858
872,1007590373,34.065689,25.826267,146.275345,-4.144570,4.428766,-0.631729,-68.719719,-115.087280,153.981201
873,1007607040,32.823799,22.958103,147.541840,-4.482541,3.766319,-0.317867,-105.666077,-108.004189,152.909531
874,1007623707,31.391014,20.198580,148.855316,-4.188716,3.597850,-0.978760,-114.720108,-103.836113,150.386307
875,1007640374,30.316648,17.576427,150.241913,-4.322259,3.936540,-1.071871,-91.169144,-97.220955,148.561432
876,1007657041,29.596979,15.157264,151.614273,-4.694425,3.948227,-0.254620,-66.163040,-88.821548,141.219498
877,1007673708,28.866617,12.987045,152.860275,-5.190282,2.881603,0.235101,-61.778740,-80.720932,127.152100
878,1007690375,27.870588,11.050931,153.898483,-5.007194,2.029027,0.305652,-72.512848,-75.761314,109.078781
879,1007707042,26.868521,9.398894,154.718033,-4.606232,1.806814,0.028793,-68.636932,-68.263268,88.812561
880,1007723709,26.291813,8.074068,155.327957,-4.096609,1.897387,-0.013848,-39.951206,-57.376923,68.177162
881,1007740376,26.151499,7.167035,155.664719,-4.389963,1.406738,0.336766,-10.890945,-42.435818,42.269775
882,1007757043,26.066385,6.686797,155.646332,-4.838209,0.760401,0.954719,-4.768537,-28.809431,11.949385
883,1007773710,25.992821,6.647953,155.217072,-4.869775,0.735026,0.943051,-1.223611,-15.765373,-21.717995
884,1007790377,26.164768,6.988689,154.429062,-4.525832,0.913195,0.484138,16.122786,-4.709877,-50.911755
885,1007807044,26.651932,7.637239,153.383148,-4.435262,0.803085,0.542941,37.405216,4.743104,-72.820847
886,1007823711,27.254940,8.585044,152.075241,-5.090845,0.873599,0.986709,47.431107,13.057525,-94.798630
887,1007840378,27.766283,9.850458,150.463333,-5.959217,1.294714,0.887823,46.342846,20.828785,-119.521057
888,1007857045,28.256660,11.432228,148.592331,-6.513615,1.964830,0.413830,50.311211,29.565395,-141.767807
889,1007873712,28.802395,13.283039,146.566498,-6.212812,2.345009,0.217404,58.904461,38.454231,-157.155975
890,1007890379,29.281786,15.353922,144.467468,-5.689147,2.524490,0.378856,60.047138,46.997623,-166.817932
891,1007907046,29.575693,17.597534,142.380814,-5.241528,2.897091,0.235389,53.271217,55.869781,-170.536392
892,1007923713,29.753332,19.980448,140.389267,-4.544638,3.230887,-0.399092,49.265533,65.868370,-168.898483
893,1007940380,29.849108,22.431421,138.553177,-3.438329,3.079201,-0.908888,45.712135,74.194168,-162.061310
894,1007957047,29.897163,24.864973,136.941010,-2.239890,2.387894,-1.078042,41.795265,80.114609,-149.423676
895,1007973714,29.944851,27.228067,135.575912,-1.469026,1.866607,-0.943388,38.933945,83.822571,-134.372833
896,1007990381,29.993168,29.451923,134.526184,-0.906829,1.541696,-0.872056,32.902485,85.544395,-114.556160
897,1008007048,30.064171,31.485855,133.836853,-0.725650,0.984065,-0.883464,25.339006,85.463493,-91.818535
898,1008023715,30.157352,33.271919,133.552689,-0.151772,0.379972,-0.960002,14.825940,83.127174,-66.106400
899,1008040382,30.474466,34.788925,133.682022,0.295459,-0.386273,-0.894718,14.791176,79.465782,-40.285301
900,1008057049,31.323624,36.021542,134.267334,0.450817,-1.091448,-0.709623,30.712769,75.800201,-13.312318
901,1008073716,32.744629,36.909424,135.334122,0.526516,-1.677283,-0.572803,47.327602,70.103561,15.482940
902,1008090383,34.431572,37.417995,136.824203,-0.196356,-2.352231,0.279534,47.321342,62.465366,42.573139
903,1008107050,36.027340,37.602505,138.571365,-1.715310,-2.977670,2.097275,32.027794,54.635067,61.636234
904,1008123717,37.293060,37.525799,140.436966,-1.834674,-2.636214,3.259375,7.816178,46.903751,74.014427
905,1008140384,38.309341,37.316242,142.353729,-0.627066,-1.730982,2.900203,-8.795341,43.663036,79.959251
906,1008157051,39.367489,37.143028,144.311386,0.305957,-1.566085,2.153537,-7.460158,48.168171,79.446228
907,1008173718,40.602699,37.004265,146.369278,1.222342,-2.004245,1.405178,-0.204025,54.534832,80.914757
908,1008190385,42.189308,36.821625,148.614426,2.339809,-2.347430,0.438717,14.409908,60.606754,88.129326
909,1008207052,44.164536,36.540146,151.034546,3.069598,-2.928699,0.090495,31.894415,64.964310,96.564819
910,1008223719,46.392056,36.125740,153.536087,3.912873,-2.710987,-0.158778,44.847847,66.004021,102.843300
911,1008240386,48.742825,35.618095,156.075150,4.645870,-1.985813,-0.239100,51.905338,68.139847,105.875778
912,1008257053,51.055439,35.083164,158.576279,5.185921,-1.321852,-0.000400,52.067200,70.516861,103.503082
913,1008273720,53.130035,34.578159,160.933151,5.639059,-0.774138,0.421360,43.856991,70.526154,95.351044
914,1008290387,54.887535,34.150749,163.064987,6.279610,-0.490764,0.380686,33.411011,67.907242,82.941048
915,1008307054,56.347973,33.858917,164.917801,6.662072,-0.326484,0.113132,25.628490,63.706146,66.657166
916,1008323721,57.499660,33.776432,166.417007,6.963992,-0.021937,-0.151184,19.222904,57.450150,45.117058
917,1008340388,58.462234,33.956169,167.535828,7.344855,0.016750,0.002406,20.539640,50.498829,20.616852
918,1008357055,59.370430,34.413120,168.318588,7.244107,-0.048297,0.190392,28.304922,44.938026,-3.192770
919,1008373722,59.971218,35.153049,168.727036,6.457547,-0.910754,1.550863,22.276514,37.294815,-27.900995
920,1008390389,59.900589,36.176605,168.644806,5.643996,-1.614712,2.785651,-1.148271,24.791052,-54.885391
921,1008407056,59.094784,37.485085,168.057663,5.383196,-1.688890,2.868810,-27.015409,13.038459,-81.661201
922,1008423723,57.903191,39.021873,167.045059,5.673493,-1.491487,2.030220,-33.660160,4.972535,-103.235291
923,1008440390,56.783527,40.683914,165.738998,5.933651,-1.129302,1.365178,-16.739174,0.620274,-116.087715
924,1008457057,55.996632,42.391785,164.290665,5.374594,-1.028530,1.820340,10.632801,0.002478,-120.993591
925,1008473724,55.384850,44.098507,162.840515,3.848252,-1.271242,3.332963,23.132090,2.812249,-119.940216
926,1008490391,54.609447,45.832306,161.418457,2.125309,-1.905111,4.837938,14.004697,7.656726,-119.459877
927,1008507058,53.395126,47.620594,159.932999,1.093678,-2.479125,5.132887,-7.733604,11.064117,-122.328552
928,1008523725,51.758244,49.407410,158.269623,1.078437,-2.943388,4.339268,-23.215963,10.066553,-124.923836
929,1008540392,49.932999,51.034809,156.316483,1.475490,-3.378730,3.191072,-19.220135,0.917490,-122.661781
930,1008557059,48.026505,52.347252,154.008408,1.688142,-3.259487,2.485662,-5.495301,-15.689299,-115.351517
931,1008573726,46.145348,53.256268,151.472672,1.725573,-2.815848,1.567739,8.547376,-32.840183,-102.165504
932,1008590393,44.367645,53.692287,148.944168,1.452314,-2.596049,1.048244,15.473771,-48.332966,-81.734879
933,1008607060,42.610916,53.566929,146.597504,0.909395,-2.536104,0.524521,8.192519,-65.538734,-54.992779
934,1008623727,40.929470,52.823242,144.554550,0.281739,-2.401986,-0.138926,-2.514352,-84.823837,-24.640425
935,1008640394,39.464951,51.506027,142.921722,-0.359406,-1.609528,-1.123419,-10.268716,-101.787621,5.511205
936,1008657061,38.364937,49.682194,141.702133,-0.288926,-0.975375,-2.011235,-9.231210,-116.966866,32.996319
937,1008673728,37.482292,47.399075,140.807541,-0.746560,-0.831395,-2.708115,-12.499598,-132.548203,56.557117
938,1008690395,36.551414,44.645954,140.213806,-1.212228,-0.711589,-3.001348,-29.983198,-149.436951,80.094383
939,1008707062,35.716530,41.514233,139.944305,-1.708793,-0.042377,-3.650781,-38.815529,-161.373535,101.650169
940,1008723729,35.419853,38.116615,140.057999,-2.349383,1.222502,-4.378343,-21.949034,-165.422073,123.220573
941,1008740396,35.741566,34.598446,140.490173,-3.793673,2.640254,-4.732164,4.133695,-162.165939,140.177933
942,1008757063,36.243721,31.065371,141.135239,-5.080201,3.551060,-4.472021,9.340136,-155.022507,151.249283
943,1008773730,36.291409,27.516697,141.915726,-5.546004,3.393717,-3.441568,-19.850748,-150.106918,159.226669
944,1008790397,35.810532,23.971991,142.835190,-5.243479,3.821924,-2.781424,-52.613033,-145.285782,165.664978
945,1008807064,35.254536,20.493902,143.988388,-5.236837,4.478792,-2.617754,-59.339333,-135.156967,173.710159
946,1008823731,35.045551,17.146883,145.377014,-5.595153,5.221484,-2.852534,-39.226551,-121.324585,180.388901
947,1008840398,35.231510,14.058475,146.892075,-5.873522,6.104589,-2.340318,-13.108533,-103.643806,178.527039
948,1008857065,35.927910,11.455607,148.406906,-6.389241,6.236146,-0.777332,21.895973,-77.916321,163.221466
949,1008873732,37.017365,9.496496,149.793503,-6.402391,5.214029,0.449987,50.427715,-48.351254,135.900925
950,1008890399,38.076061,8.257408,150.899612,-6.536663,3.536748,1.200342,53.476151,-21.425861,97.521301
951,1008907066,38.658764,7.727223,151.490997,-6.500124,1.829364,1.741573,30.225456,-5.556673,47.506115
952,1008923733,39.018448,7.843182,151.389969,-6.076975,1.807257,1.508803,22.594706,-0.760840,-8.844070
953,1008940400,39.667294,8.526268,150.656982,-5.864537,2.348679,1.057123,45.375576,1.696356,-59.460526
954,1008957067,40.748688,9.689685,149.420349,-6.076581,2.536831,1.123299,76.800804,3.616866,-100.841118
955,1008973734,41.960304,11.280721,147.745193,-7.123873,2.552785,1.250171,91.147377,3.963656,-137.098221
956,1008990401,42.998566,13.261433,145.682037,-8.293367,2.746251,1.113679,88.751244,3.565497,-169.321915
957,1009007068,43.768326,15.530823,143.317322,-8.516872,3.298666,0.699747,81.592125,2.167663,-193.271393
958,1009023735,44.212749,17.945168,140.762314,-7.214550,3.357613,0.569350,70.937263,-0.136551,-206.111649
959,1009040402,44.305431,20.401539,138.087784,-5.963879,3.445964,0.378114,58.380245,-2.626246,-211.304443
960,1009057069,44.015530,22.838955,135.356598,-4.977880,3.758136,0.104939,43.097309,-3.617437,-211.072815
961,1009073736,43.258270,25.205019,132.666763,-3.906657,3.710020,0.139329,20.374794,-1.383458,-204.559219
962,1009090403,42.070385,27.442772,130.103271,-2.767391,3.336320,0.010331,-2.954336,2.903456,-192.274292
963,1009107070,40.686378,29.523354,127.770180,-1.486314,2.890303,-0.684018,-16.174568,9.941865,-174.758087
964,1009123737,39.363705,31.422184,125.783020,-0.520110,2.042065,-1.359382,-18.791370,18.760677,-151.876221
965,1009140404,38.284817,33.099327,124.199188,-0.110113,1.060074,-1.488998,-13.910379,25.623402,-125.608711
966,1009157071,37.537861,34.478874,123.074898,0.717269,0.247261,-1.441635,-7.205218,28.462952,-94.997757
967,1009173738,37.217587,35.541687,122.443695,1.505121,-0.814384,-1.392738,2.610664,29.443119,-63.263493
968,1009190405,37.395535,36.306572,122.315193,1.833992,-1.510636,-1.296903,15.306853,30.312469,-32.671635
969,1009207072,38.127579,36.818844,122.691780,2.041810,-1.907516,-1.041805,30.576370,32.995968,-4.355996
970,1009223739,39.472176,37.138969,123.592613,1.853314,-2.176337,-0.575125,48.283710,39.596863,21.745180
971,1009240406,41.326897,37.305794,124.993156,1.596256,-2.455989,-0.009954,60.577797,48.550945,44.611366
972,1009257073,43.625679,37.341312,126.851273,2.185936,-3.091456,-0.302960,70.460686,58.990467,64.099930
973,1009273740,46.610210,37.284878,129.159637,2.019170,-3.920228,-0.694492,95.245071,73.201126,80.288841
974,1009290407,50.330746,37.184772,131.795013,0.649780,-4.597008,-0.132743,127.679527,87.789391,88.134064
975,1009307074,54.351906,37.115475,134.565399,-0.930052,-5.133561,1.352819,141.009842,99.859161,84.416222
976,1009323741,58.064312,37.171818,137.247192,-0.861049,-4.818604,2.496359,125.711639,105.972481,68.714073
977,1009340408,61.252289,37.492580,139.778168,0.547329,-4.449001,2.035770,99.316963,111.415314,44.579151
978,1009357075,64.217270,38.113907,142.203918,1.981874,-4.005954,1.462935,88.821182,116.770607,19.748436
979,1009373742,67.233345,38.994736,144.561417,3.525154,-3.155199,1.252084,92.940712,120.027107,-2.484660
980,1009390409,70.425262,39.988197,146.918716,4.903631,-1.789954,1.276516,101.703377,120.771584,-15.934229
981,1009407076,73.667580,40.972118,149.342636,6.235838,-0.615953,1.036772,100.268677,120.890182,-21.818384
982,1009423743,76.683640,41.914387,151.774796,7.026164,0.376713,0.924516,84.530495,117.673859,-26.405575
983,1009440410,79.299698,42.817318,154.102478,7.739489,0.736168,0.896936,63.019199,109.665268,-31.247183
984,1009457077,81.424988,43.682499,156.210739,7.922214,0.833209,1.065900,41.028248,96.994881,-35.462967
985,1009473744,82.883469,44.522575,157.953629,7.302204,0.723878,1.760558,14.929338,78.745949,-39.379871
986,1009490411,83.474480,45.395439,159.210846,6.544185,0.372770,2.681396,-17.633795,56.700802,-45.348423
987,1009507078,83.154984,46.379505,159.916443,5.824793,-0.409835,3.409134,-49.353710,33.629040,-54.889137
988,1009523745,82.052895,47.518936,160.050858,5.288166,-1.234897,3.566098,-71.799225,11.750722,-66.755547
989,1009540412,80.513481,48.815010,159.711731,5.570811,-1.832707,2.405928,-76.983421,-4.141174,-78.582916
990,1009557079,78.905716,50.163605,159.064484,5.934161,-1.974815,1.346931,-66.716202,-12.881564,-83.768860
991,1009573746,77.358292,51.479733,158.045532,5.901632,-2.305123,1.058196,-45.228642,-24.073044,-84.859528
992,1009590413,75.792122,52.627316,156.712616,5.480183,-2.390982,1.070972,-30.677753,-34.364887,-78.018585
993,1009607080,74.059853,53.522907,155.092087,4.883274,-2.624801,1.243155,-25.981050,-44.948448,-66.693542
994,1009623747,72.241837,54.107521,153.263733,4.249332,-2.351589,1.172228,-20.311510,-54.341175,-51.954422
995,1009640414,70.498329,54.362713,151.364243,3.756908,-2.241741,0.728612,-11.909402,-60.750324,-35.396641
996,1009657081,68.962402,54.262848,149.470810,3.159069,-2.588630,0.652007,0.345195,-66.768333,-16.946043
997,1009673748,67.608856,53.740978,147.656540,2.306373,-2.530645,1.045124,7.085897,-73.550621,5.811256
998,1009690415,66.560341,52.784672,146.066132,1.563555,-2.083528,0.881180,13.789233,-77.441109,31.012737
999,1009707082,65.661072,51.383133,144.746689,0.776380,-1.567026,0.288116,8.732772,-81.066727,57.573620
1000,1009723749,64.645958,49.540333,143.652573,0.083911,-1.272197,-0.313795,-10.040233,-86.915359,83.159340
1001,1009740416,63.354103,47.257977,142.783966,-0.560558,-0.938679,-0.786787,-38.294899,-93.668625,108.293060
1002,1009757083,62.052528,44.560047,142.166977,-0.511708,-1.478204,-2.309820,-51.260593,-99.665955,132.412064
1003,1009773750,61.146503,41.554440,141.750320,-1.229842,-1.072891,-3.703105,-37.051388,-104.384361,150.312744
1004,1009790417,60.535606,38.277275,141.549652,-2.324475,0.588525,-3.125486,-28.691286,-106.413498,167.576035
1005,1009807084,59.779198,34.810394,141.685425,-3.557675,2.410485,-1.644257,-49.997696,-100.375626,184.043304
1006,1009823751,58.276512,31.190393,142.117279,-4.136225,3.158261,-0.774146,-104.022018,-95.684219,197.765411
1007,1009840418,56.005169,27.423262,142.777161,-3.746230,2.808177,-1.964339,-155.388931,-96.174255,208.946930
1008,1009857085,53.514153,23.506531,143.658401,-3.377667,2.773783,-3.920867,-171.915314,-99.145828,219.825394
1009,1009873752,51.354019,19.544020,144.795670,-4.112725,3.910208,-4.570476,-154.373489,-97.161362,227.480743
1010,1009890419,49.267433,15.598870,146.221878,-5.770096,5.253886,-2.318691,-150.759140,-90.905907,234.570770
1011,1009907086,46.787533,11.825060,147.849762,-6.811913,5.688074,-0.400202,-171.668106,-83.387215,232.112946
1012,1009923753,43.994244,8.278558,149.578400,-7.227724,5.240297,-0.301486,-185.418015,-79.223389,223.510681
1013,1009940420,41.623211,5.031932,151.389450,-7.074919,5.330668,-0.725479,-154.588440,-72.045204,211.840012
1014,1009957087,40.160221,2.341584,153.138138,-7.048816,5.631930,-0.069303,-94.285515,-55.955063,185.083679
1015,1009973754,39.508106,0.381669,154.613663,-6.106560,4.520615,0.759445,-41.004948,-36.077515,143.540649
1016,1009990421,39.354382,-0.715122,155.568024,-5.467985,2.475073,1.386117,-8.835676,-16.925364,86.267387
1017,1010007088,39.869930,-0.969376,155.831467,-5.105485,1.977448,0.364182,31.383026,-4.138048,22.143772
1018,1010023755,41.278091,-0.544791,155.468094,-5.192056,1.956375,0.000510,84.416786,2.711573,-32.893921
1019,1010040422,43.323513,0.464852,154.515350,-6.050838,1.454379,0.986735,122.892303,3.876955,-82.823021
1020,1010057089,45.194458,1.943842,152.962418,-7.680970,1.467169,2.217459,114.409554,-3.918947,-128.427780
1021,1010073756,46.531548,3.849694,150.836044,-9.180267,2.334995,2.062747,86.857483,-14.277948,-170.579712
1022,1010090423,47.694736,6.128662,148.263641,-9.757427,3.643081,1.057937,83.384468,-22.070444,-204.617218
1023,1010107090,49.158638,8.675813,145.501923,-9.422057,4.295537,0.141297,109.332771,-23.985352,-223.171967
1024,1010123757,50.795212,11.333298,142.756516,-8.693519,4.166046,0.516085,126.950081,-24.153431,-226.240143
1025,1010140424,51.929623,13.957942,140.129959,-7.595594,4.115767,0.856748,102.705879,-24.248066,-218.841797
1026,1010157091,52.387871,16.476181,137.739670,-5.949376,3.976789,0.507759,65.289726,-19.054808,-204.046646
1027,1010173758,52.426472,18.850878,135.651489,-3.790197,2.988717,0.034551,40.485172,-10.129886,-185.561493
1028,1010190425,52.309429,20.984676,133.951477,-2.022520,2.194322,-0.247339,27.876747,-0.227769,-159.786972
1029,1010207092,52.193745,22.783960,132.795380,-0.634512,1.375198,-0.726216,19.062109,12.747259,-124.609901
1030,1010223759,52.142319,24.223925,132.279312,0.102952,0.452241,-0.578731,9.412944,28.117199,-85.496140
1031,1010240426,52.258678,25.338856,132.434906,0.527458,-0.466629,-0.171569,3.219239,45.246891,-47.502388
1032,1010257093,52.562027,26.166384,133.272598,1.010239,-1.004576,0.197636,-3.482149,63.702984,-11.563894
1033,1010273760,53.161945,26.767609,134.748779,1.537457,-1.499889,0.400841,-3.320335,82.526169,19.283144
1034,1010290427,54.139233,27.191662,136.794189,1.725969,-2.293034,0.363800,3.120330,100.700546,44.506908
1035,1010307094,55.530857,27.458830,139.313263,1.509187,-3.347214,0.716111,14.276313,116.533714,64.412827
1036,1010323761,57.490242,27.578518,142.183960,1.266049,-4.441885,1.288695,38.137844,128.878830,78.484222
1037,1010340428,60.172081,27.584356,145.311859,1.039840,-5.305197,1.941040,74.159180,140.031006,85.987480
1038,1010357095,63.081085,27.567457,148.496780,0.845212,-5.808234,3.437563,86.220840,146.063736,81.585091
1039,1010373762,65.469185,27.641127,151.507080,1.614279,-5.945986,4.088886,59.747177,143.609375,65.692902
1040,1010390429,67.123192,27.901936,154.258698,3.148206,-4.942410,3.019331,22.477755,137.536179,44.610058
1041,1010407096,68.191544,28.371639,156.808731,4.618263,-3.390200,1.777993,-7.881321,132.990997,25.447628
1042,1010423763,68.987556,29.035595,159.159698,6.097492,-2.234263,-0.147110,-19.812418,127.210960,8.312378
1043,1010440430,69.906685,29.842333,161.317474,7.345030,-1.888257,-1.770820,-8.306457,120.046341,-5.493705
1044,1010457097,71.338364,30.658216,163.246033,8.174456,-1.707595,-2.350296,27.788507,108.014565,-12.755651
1045,1010473764,73.178551,31.412357,164.899902,8.206290,-0.906173,-2.438377,59.433498,92.249611,-16.916592
1046,1010490431,74.686600,32.153824,166.156021,7.331794,-0.494827,-0.147790,50.976582,71.351776,-24.736712
1047,1010507098,75.021408,32.940353,166.790451,7.239505,0.482653,1.285045,-0.191534,40.778568,-36.876827
1048,1010523765,74.275284,33.890797,166.888504,7.899885,1.359087,-0.190264,-47.803455,17.311525,-53.390705
1049,1010540432,73.253113,34.996090,166.584457,8.619146,1.110860,-1.164639,-50.803867,1.574215,-67.566589
1050,1010557099,72.373993,36.157951,165.952133,8.299492,0.414408,-0.760382,-30.456896,-11.404735,-75.394096
1051,1010573766,71.355942,37.332222,164.938904,6.936738,-0.796628,1.357635,-24.491270,-26.889582,-81.782593
1052,1010590433,69.781403,38.504425,163.403336,5.939931,-1.657447,2.682879,-37.627037,-47.671478,-90.159943
1053,1010607100,67.568001,39.666836,161.329620,5.752184,-2.209370,2.526704,-54.122795,-67.129951,-99.731323
1054,1010623767,65.105736,40.734268,158.863571,6.065974,-2.531692,1.616488,-51.989353,-80.336723,-103.651978
1055,1010640434,62.900429,41.655460,156.275482,5.790353,-2.721846,1.164100,-29.803217,-83.331772,-100.521713
1056,1010657101,61.097225,42.421268,153.618942,4.657338,-3.039600,1.922653,-1.219837,-85.486832,-95.768188
1057,1010673768,59.280464,42.984745,150.831619,2.564415,-3.344569,3.087984,4.656950,-92.366333,-90.050743
1058,1010690435,57.064804,43.284317,147.929062,0.950729,-3.400979,3.519034,-13.624012,-101.036987,-81.913994
1059,1010707102,54.405739,43.247631,145.025864,0.562375,-3.112745,2.701748,-39.906887,-108.606384,-69.220039
1060,1010723769,51.564560,42.858707,142.263382,0.923291,-2.792966,1.630916,-57.069019,-113.297523,-53.914730
1061,1010740436,48.966209,42.078133,139.768066,1.078135,-2.836226,0.660860,-54.564392,-117.412254,-34.220909
1062,1010757103,47.223228,40.936287,137.651245,0.066744,-2.382178,0.119496,-20.163876,-119.092957,-12.180496
1063,1010773770,46.129978,39.499744,135.915604,-0.849561,-1.505868,-0.188951,1.888488,-119.538445,8.497963
1064,1010790437,45.045746,37.815662,134.466690,-1.604852,-1.501598,-0.198961,-10.507698,-121.757683,25.019491
1065,1010807104,43.457508,35.839325,133.232101,-1.912099,-1.582242,-0.138231,-50.646576,-128.867126,40.618813
1066,1010823771,41.501793,33.557594,132.286819,-1.656389,-1.684258,-0.597087,-84.805573,-135.019791,58.403687
1067,1010840438,39.602757,30.992052,131.740555,-1.615653,-0.955101,-1.386295,-96.191002,-137.539612,79.359184
1068,1010857105,37.761898,28.157642,131.677063,-1.420138,0.344734,-2.048602,-108.321541,-137.393433,104.037155
1069,1010873772,35.836773,25.162287,132.031448,-1.473138,1.188199,-1.789248,-124.796066,-135.091202,123.203598
1070,1010890439,33.609837,22.034101,132.759033,-1.541024,1.786843,-1.641570,-150.834854,-134.042679,140.121170
1071,1010907106,31.326220,18.826155,133.865082,-1.707592,2.167972,-2.087538,-159.922318,-131.563873,156.123383
1072,1010923773,29.450882,15.583825,135.382797,-3.053530,2.837195,-2.420760,-139.202545,-126.353844,173.766998
1073,1010940440,27.807032,12.300241,137.334320,-4.104951,4.081170,-2.547034,-126.592041,-121.008812,194.455505
1074,1010957107,26.016500,9.114100,139.604721,-5.504784,5.125195,-1.454689,-132.485397,-112.396561,206.191879
1075,1010973774,23.922211,6.147916,142.086594,-7.109499,5.576236,-0.173747,-145.171158,-101.535370,209.230469
1076,1010990441,21.768055,3.525212,144.626892,-7.772923,5.840639,0.411247,-141.845444,-88.547806,201.350235
1077,1011007108,20.171741,1.403786,147.033783,-7.972484,5.817567,0.167368,-101.753845,-69.705772,180.555573
1078,1011023775,19.599598,-0.082076,149.124908,-7.421658,5.355032,-0.152582,-35.561283,-43.641697,148.571198
1079,1011040442,20.085835,-0.885672,150.706314,-6.196569,4.445372,-0.518446,30.180420,-15.620982,105.879150
1080,1011057109,21.537367,-1.030522,151.565323,-5.578484,3.124936,-0.802236,88.159378,7.718089,51.525398
1081,1011073776,23.719261,-0.628457,151.640961,-5.546660,2.075664,-0.871449,131.185318,21.552401,-4.833943
1082,1011090443,26.155468,0.205645,150.983368,-5.872636,1.337028,-0.166203,146.226913,26.290184,-56.626217
1083,1011107110,28.210054,1.339797,149.673630,-6.389912,0.931541,1.004151,124.524025,22.182110,-100.740372
1084,1011123777,29.338739,2.673675,147.786499,-7.197196,0.998714,1.715107,71.870399,13.225036,-137.464798
1085,1011140444,29.599304,4.138341,145.437210,-7.420400,2.128655,1.001299,24.192894,4.832076,-165.492752
1086,1011157111,29.608700,5.752589,142.772949,-7.370030,3.302481,-0.022080,14.523332,3.079159,-186.077560
1087,1011173778,29.899395,7.579671,139.965485,-7.531882,4.456682,-0.293938,37.162930,9.685319,-199.419220
1088,1011190445,30.436646,9.603973,137.150299,-7.148030,5.093216,0.164794,57.623665,18.622904,-205.201569
1089,1011207112,30.805367,11.818827,134.423325,-6.940996,5.163522,1.347117,52.685539,30.023691,-205.816818
1090,1011223779,30.620565,14.231816,131.857056,-7.014878,4.997141,2.110118,23.772295,45.409187,-202.700912
1091,1011240446,29.795557,16.827837,129.485489,-6.140715,4.935874,1.967317,-11.239164,63.188663,-196.645554
1092,1011257113,28.494184,19.669811,127.175880,-4.643560,4.414084,2.031310,-34.519539,82.393761,-197.790253
1093,1011273780,26.960924,22.667419,125.080818,-2.769904,4.300713,1.626916,-46.431652,102.230530,-187.248047
1094,1011290447,25.577549,25.719067,123.455399,-0.818739,3.680054,0.900082,-42.870255,122.390869,-160.620239
1095,1011307114,24.628307,28.788656,122.366364,-0.122474,2.130682,0.204045,-26.876905,139.717422,-130.546936
1096,1011323781,24.305588,31.778603,121.843307,0.287335,0.343595,-0.755868,-3.390187,149.648621,-98.780212
1097,1011340448,24.853909,34.563198,121.994476,0.986450,-1.203324,-1.498785,28.073387,152.678085,-62.401974
1098,1011357115,26.538464,37.082088,122.899437,0.824641,-2.512246,-1.544146,69.423065,152.855530,-25.664627
1099,1011373782,28.935434,39.218681,124.526741,1.074152,-3.337441,-0.782518,83.630821,146.763077,8.489308
1100,1011390449,31.661594,40.934944,126.739105,1.568142,-4.238238,-0.271424,78.239594,137.703247,35.943295
1101,1011407116,34.634235,42.234062,129.444702,2.214048,-5.023288,-0.290429,70.747078,129.193741,59.239510
1102,1011423783,37.882687,43.106007,132.625046,3.575632,-5.312965,-0.779289,65.709831,122.690468,82.389755
1103,1011440450,41.404659,43.566681,136.192108,4.814859,-5.405329,-1.567024,64.572716,118.117073,102.431175
1104,1011457117,45.216892,43.659447,140.012985,5.645796,-5.274933,-2.225708,70.735573,115.414627,117.156639
1105,1011473784,49.199806,43.433960,144.011337,5.874303,-4.410499,-2.380758,73.829376,115.911819,128.255081
1106,1011490451,53.348412,42.981518,148.168930,6.114898,-3.745203,-2.307647,78.252457,122.364220,135.130707
1107,1011507118,57.676086,42.393265,152.499130,6.250562,-3.135911,-2.320570,83.630394,134.919937,137.437698
1108,1011523785,62.047153,41.762566,156.920868,5.959568,-2.823486,-1.626901,84.593925,148.782898,131.817139
1109,1011540452,65.909821,41.241302,161.166046,5.506027,-2.894006,-0.163175,63.112186,155.177399,112.027832
1110,1011557119,68.755821,41.053398,164.919601,5.744220,-3.276779,1.485820,22.731703,149.614563,76.016495
1111,1011573786,70.327568,41.369167,167.879898,6.902515,-3.628608,2.526707,-22.530838,129.277618,29.232155
1112,1011590453,70.616219,42.212025,169.845703,8.257891,-3.338326,3.227403,-61.087006,97.252480,-17.969805
1113,1011607120,69.770996,43.503033,170.722855,8.977210,-2.585934,3.428232,-86.312752,60.009563,-59.501919
1114,1011623787,68.045105,45.102715,170.611359,8.979917,-1.718048,3.332516,-98.678070,27.529999,-90.956924
1115,1011640454,65.847710,46.823406,169.673523,8.691593,-1.251131,2.835124,-91.181427,1.885736,-109.981476
1116,1011657121,63.620865,48.504261,168.136032,8.078352,-0.838203,2.209238,-65.202362,-15.697856,-117.367775
1117,1011673788,61.582005,50.040859,166.218430,7.057519,-0.857481,2.113229,-34.920830,-26.784384,-116.032005
1118,1011690455,59.875275,51.338802,164.112183,6.128169,-1.162707,2.155190,-4.407910,-34.326340,-106.698265
1119,1011707122,58.396542,52.311855,161.914322,4.949672,-1.568482,2.327423,15.158583,-42.578312,-91.540802
1120,1011723789,56.893940,52.891750,159.619461,3.639314,-2.143597,2.554260,19.449047,-54.590431,-73.758034
1121,1011740456,55.297745,53.046417,157.284439,2.939266,-2.232498,2.271629,16.290552,-67.419113,-54.377007
1122,1011757123,53.662518,52.766026,154.953079,2.398004,-2.411844,1.724886,13.685822,-81.006264,-34.930702
1123,1011773790,52.116009,52.019817,152.655304,2.055933,-2.673246,0.849175,16.654448,-96.672600,-14.668531
1124,1011790457,50.743122,50.801949,150.439438,1.191040,-2.848301,0.200691,21.775497,-112.961578,5.812415
1125,1011807124,49.405457,49.048264,148.382431,0.336592,-2.998517,-0.610514,14.416057,-131.033707,30.078094
1126,1011823791,47.912075,46.674454,146.488281,-0.285691,-3.253506,-1.200394,-5.082991,-153.901367,56.942684
1127,1011840458,46.280182,43.650913,144.799911,-0.811899,-3.476839,-2.008592,-25.818789,-178.403290,84.627113
