sep=,
DeviceTag:,DOT10
FirmwareVersion:,3.0.0
AppVersion:,2023.6.0
SyncStatus:,Synced
OutputRate:,60Hz
FilterProfile:,Dynamic
Measurement Mode:,Custom modes - custom mode1
StartTime: ,2026-06-02_18:17:31_745 GMT+2
© Movella Technologies B. V. 2005-2026

PacketCounter,SampleTimeFine,Euler_X,Euler_Y,Euler_Z,FreeAcc_X,FreeAcc_Y,FreeAcc_Z,Gyr_X,Gyr_Y,Gyr_Z
1,1916980179,-150.543365,6.347583,-24.704939,-0.116541,3.039197,3.724953,-48.605209,19.718616,-17.686222
2,1916996846,-150.400589,6.106776,-24.675508,0.014353,2.715141,4.218765,9.913245,10.636279,-8.780875
3,1917013513,-149.788528,6.113433,-24.706881,-0.837602,1.448452,2.942676,38.451973,-0.478525,1.686662
4,1917030180,-149.237213,6.315450,-24.726450,-0.870069,0.646183,2.715521,34.727512,-10.911229,7.020891
5,1917046847,-148.607986,6.742985,-24.700056,-1.004891,0.250383,3.172287,39.094872,-23.835072,11.757545
6,1917063514,-147.950943,7.412269,-24.620192,-1.208931,0.037306,2.861498,40.354111,-37.708694,16.929508
7,1917080181,-147.290115,8.257140,-24.496946,-1.052484,0.281249,2.100106,40.163021,-47.779964,20.815983
8,1917096848,-146.609619,9.249139,-24.379709,-0.774908,0.430804,1.822554,41.282078,-54.723629,26.484196
9,1917113515,-145.785416,10.381396,-24.315029,-0.344274,0.654410,1.887776,50.310287,-59.620605,34.464325
10,1917130182,-144.731461,11.671826,-24.328270,-0.042123,0.854794,2.148856,64.905243,-64.217262,44.612110
11,1917146849,-143.218048,13.096179,-24.413958,-0.088890,0.409316,2.154926,93.417854,-67.203041,54.170948
12,1917163516,-141.353897,14.556314,-24.479136,-0.155319,-0.314495,0.694147,114.289307,-68.022713,56.440758
13,1917180183,-139.385010,16.093185,-24.577896,0.276096,0.021111,1.048342,121.204811,-68.414574,63.066368
14,1917196850,-137.298355,17.723572,-24.732418,1.182380,0.158180,1.223334,129.396683,-68.234093,71.497581
15,1917213517,-134.795151,19.479254,-24.927229,1.628894,-0.116203,2.147099,155.415146,-69.199799,80.940994
16,1917230184,-131.640594,21.388166,-25.130827,1.440459,-0.834209,2.564163,195.025803,-71.148277,91.172737
17,1917246851,-127.784218,23.275866,-25.254259,0.296203,-1.617521,0.883508,235.678024,-68.169128,91.384346
18,1917263518,-123.522186,25.087433,-25.241783,-0.528975,-1.888250,-1.220119,256.899933,-64.989441,87.805923
19,1917280185,-119.276413,26.782730,-25.056198,-0.567388,-1.904207,-2.405154,251.370300,-62.626019,81.487869
20,1917296852,-115.420692,28.370424,-24.833754,-0.159098,-1.122646,-1.652748,226.668991,-55.359745,79.059059
21,1917313519,-111.899445,29.860447,-24.564255,-0.304300,-1.097755,-2.033926,204.916656,-49.909397,76.095345
22,1917330186,-108.922462,31.221231,-24.246838,-1.040613,-0.854227,-2.753235,170.459946,-44.935349,70.677902
23,1917346853,-106.685028,32.429897,-23.890484,-1.302580,-0.626488,-2.918054,124.495224,-40.562443,63.362839
24,1917363520,-105.151604,33.490673,-23.523623,-1.127390,-0.614052,-2.406636,81.562256,-36.310509,56.005112
25,1917380187,-104.137650,34.419655,-23.177111,-0.887585,-0.825652,-2.052494,50.760101,-31.873724,49.427677
26,1917396854,-103.485435,35.241032,-22.859266,-0.751456,-0.876010,-1.861396,29.782860,-28.065178,43.976944
27,1917413521,-103.091904,35.941566,-22.588196,-0.660091,-0.897417,-1.760191,15.687384,-23.640003,37.719349
28,1917430188,-102.912979,36.539841,-22.350414,-0.587042,-1.003961,-1.376178,3.848808,-20.394526,32.238739
29,1917446855,-102.808037,37.049789,-22.153629,-0.427733,-1.049569,-1.042669,0.775805,-17.138546,27.574970
30,1917463522,-102.699768,37.495262,-21.991102,-0.411891,-1.024143,-0.891608,2.144089,-14.585918,24.203533
31,1917480189,-102.548195,37.891239,-21.869165,-0.242775,-1.017526,-0.632993,6.177547,-11.962796,21.765316
32,1917496856,-102.216774,38.245361,-21.770922,-0.006784,-1.087590,-0.303904,17.811220,-10.212146,19.604342
33,1917513523,-101.626785,38.564690,-21.687586,0.097020,-1.014943,-0.111858,33.853565,-8.921503,17.785240
34,1917530190,-100.853226,38.878895,-21.628494,0.044364,-0.899454,-0.141837,45.761105,-7.520261,17.802050
35,1917546857,-99.997345,39.175636,-21.581470,-0.160665,-0.906005,-0.233012,51.142204,-6.512250,16.967354
36,1917563524,-99.126663,39.444275,-21.534374,-0.137466,-1.032179,-0.097939,52.020435,-5.971370,15.385988
37,1917580191,-98.197456,39.678215,-21.464279,0.061122,-0.956391,0.157617,54.646912,-6.461594,13.245291
38,1917596858,-97.178452,39.895889,-21.368855,-0.066712,-1.005200,0.184055,59.050182,-7.255236,12.215103
39,1917613525,-96.166115,40.099583,-21.230930,-0.214440,-1.114017,-0.052616,56.997593,-8.866481,11.265337
40,1917630192,-95.306343,40.269444,-21.096231,-0.078623,-1.010226,-0.163384,47.951542,-8.315593,9.388205
41,1917646859,-94.478119,40.480846,-20.948538,0.415979,-1.055666,0.638906,45.538315,-8.962955,11.930318
42,1917663526,-93.606033,40.665909,-20.797144,0.133876,-1.001302,0.039042,48.003407,-8.826214,10.461555
43,1917680193,-92.822357,40.853588,-20.644796,0.114015,-0.990330,0.189160,42.640743,-8.709237,10.730882
44,1917696860,-92.122879,41.042370,-20.489178,0.328480,-0.835556,0.046251,37.439617,-8.701643,10.890382
45,1917713527,-91.528740,41.256420,-20.337780,0.396645,-0.686676,-0.006649,31.264997,-8.414000,12.501681
46,1917730194,-90.980835,41.527142,-20.172424,0.467022,-0.954706,0.102643,27.908966,-8.969744,15.963375
47,1917746861,-90.419518,41.850407,-19.963018,0.755018,-1.349648,0.219568,26.918579,-10.793557,19.170076
48,1917763528,-89.692337,42.183529,-19.697788,0.771778,-1.618260,0.097812,34.577541,-13.020090,19.873968
49,1917780195,-88.749817,42.512596,-19.386017,0.771125,-1.592398,-0.027253,45.552254,-14.737778,19.835770
50,1917796862,-87.617828,42.833618,-19.029488,0.852505,-1.248588,-0.053063,55.025955,-16.298250,19.663387
51,1917813529,-86.301048,43.199841,-18.677507,1.070498,-0.562994,-0.155535,66.208008,-15.441421,22.682024
52,1917830196,-84.943520,43.686237,-18.355585,0.860038,-0.372072,-0.408300,69.774879,-12.946709,30.099052
53,1917846863,-83.651329,44.227859,-18.033722,0.608727,-0.179517,-0.342745,65.731339,-11.792307,33.654953
54,1917863530,-82.493782,44.811527,-17.693140,0.344520,0.442127,-0.338686,56.726971,-11.429791,36.463947
55,1917880197,-81.518791,45.449898,-17.303431,-0.074393,1.459671,-0.364025,43.526760,-12.198359,40.169415
56,1917896864,-80.751335,46.074730,-16.905876,-0.468180,2.732285,-0.527964,30.551334,-11.845470,39.548172
57,1917913531,-80.113327,46.628551,-16.515018,-0.507582,3.852632,-0.330976,22.894043,-11.612950,35.393108
58,1917930198,-79.510017,47.110924,-16.061855,-0.570629,4.252465,0.146159,17.923586,-14.336707,31.699348
59,1917946865,-78.838242,47.501221,-15.479782,-0.619972,4.559630,0.703601,16.192781,-20.008587,27.364212
60,1917963532,-77.857658,47.845436,-14.653082,-0.767638,4.724853,1.493716,23.701195,-29.672640,26.874578
61,1917980199,-76.459221,48.129284,-13.553275,-1.202935,5.021534,1.450602,36.398846,-40.392170,26.309505
62,1917996866,-74.659027,48.333874,-12.208217,-1.856810,5.079989,1.493052,49.324947,-50.097218,25.168346
63,1918013533,-72.459435,48.433601,-10.676284,-2.061741,4.838685,1.875364,64.743752,-57.938171,22.869957
64,1918030200,-69.885727,48.426060,-9.027248,-2.308077,4.334444,2.287942,81.870949,-63.354977,20.594044
65,1918046867,-67.011864,48.327381,-7.291735,-2.502080,3.797273,2.575928,96.047012,-67.566299,19.718086
66,1918063534,-63.919651,48.149250,-5.478472,-2.812034,3.613508,2.646920,105.819633,-71.410278,20.165331
67,1918080201,-60.723640,47.892025,-3.636841,-3.146468,3.312716,2.652006,111.044945,-73.668755,20.443604
68,1918096868,-57.473858,47.543064,-1.807267,-3.258226,2.690328,2.725326,115.181908,-75.174576,19.724266
69,1918113535,-54.178349,47.075058,-0.046785,-3.512364,1.740922,2.897057,121.490677,-76.080292,16.738838
70,1918130202,-50.840878,46.465996,1.597729,-3.696235,0.651874,3.033788,129.737442,-76.932487,11.865471
71,1918146869,-47.482067,45.693733,3.035501,-3.641857,-0.588270,2.732802,140.772507,-76.651245,3.785587
72,1918163536,-44.141411,44.720348,4.245671,-3.367084,-1.545315,2.121360,150.287979,-78.492836,-6.517442
73,1918180203,-40.862083,43.513210,5.235818,-3.218140,-2.090945,1.415503,156.780289,-83.341888,-17.790453
74,1918196870,-37.621731,42.081211,5.976083,-2.771807,-2.275077,0.770898,165.624908,-88.314484,-29.416723
75,1918213537,-34.410717,40.479591,6.462910,-2.218349,-2.129853,0.391470,174.768036,-91.819382,-39.051380
76,1918230204,-31.280466,38.730141,6.697491,-2.440995,-1.960276,-0.206322,180.229095,-95.275261,-48.118080
77,1918246871,-28.432930,36.838528,6.598481,-2.505413,-1.667900,-1.238353,175.883850,-97.324730,-60.863556
78,1918263538,-26.015554,34.836758,6.152676,-1.947126,-1.579291,-1.858104,162.100433,-98.130836,-74.508347
79,1918280205,-23.896832,32.794327,5.307473,-1.601946,-1.317402,-1.929471,156.749527,-94.592758,-90.172455
80,1918296872,-21.967955,30.673758,4.081904,-1.459923,-1.374526,-2.142581,155.822876,-94.087120,-107.432297
81,1918313539,-20.166002,28.485853,2.501267,-0.783127,-1.583363,-2.031348,156.356033,-94.140121,-124.398972
82,1918330206,-18.427372,26.210199,0.523796,-1.018428,-1.342859,-1.965326,160.259674,-95.334740,-144.818375
83,1918346873,-16.829218,23.837927,-1.990699,-0.690514,-1.245384,-2.949379,161.158997,-95.541618,-173.618256
84,1918363540,-15.208529,21.342705,-5.105803,0.693934,-1.806259,-3.786892,170.501221,-97.561119,-207.388412
85,1918380207,-13.441554,18.765419,-8.777036,3.408932,-1.966031,-3.711434,183.029312,-99.891586,-238.948730
86,1918396874,-11.800772,16.377295,-12.831960,7.799171,-1.747310,-3.652485,173.394501,-90.372696,-257.818542
87,1918413541,-10.753109,14.498747,-16.962683,12.331054,-2.585977,-3.339839,130.374969,-64.999786,-256.484467
88,1918430208,-10.480931,13.462152,-20.738497,13.880207,-3.126400,-3.387975,72.633743,-21.755203,-227.655838
89,1918446875,-11.106587,13.104450,-23.821310,11.891523,-0.162182,-3.297281,6.542902,11.570810,-180.957932
90,1918463542,-12.635277,13.070843,-26.128174,8.790961,1.388846,-2.669659,-58.814247,24.763624,-132.451797
91,1918480209,-14.736525,13.124858,-27.413193,5.743981,2.867865,-1.485781,-107.071777,19.965233,-72.298622
92,1918496876,-17.168022,13.291393,-27.632736,3.377301,3.674668,-0.958675,-141.382629,12.203214,-9.682393
93,1918513543,-19.630545,13.583982,-27.002117,2.812173,2.792166,-1.810508,-155.070007,4.122359,40.363575
94,1918530210,-22.023260,14.075688,-25.856987,3.419495,1.608945,-2.406744,-158.527817,2.940224,72.752182
95,1918546877,-24.410963,14.913218,-24.434126,3.809696,0.336062,-1.597005,-163.179047,12.696139,95.685143
96,1918563544,-26.759485,16.196001,-22.881302,3.996993,-0.642065,-0.715317,-164.446976,29.769920,114.122398
97,1918580211,-28.984684,17.867828,-21.188339,4.202470,-0.909904,-0.776600,-161.812195,42.396721,132.694473
98,1918596878,-31.082630,19.799927,-19.371401,4.311303,-1.075179,-0.806663,-159.609360,47.864948,147.304062
99,1918613545,-32.999886,21.866207,-17.399483,3.822217,-1.641778,-0.581171,-155.649963,45.582775,159.490219
100,1918630212,-34.639950,24.014294,-15.290961,3.347547,-2.152560,-0.696636,-146.240845,41.399414,168.527740
101,1918646879,-35.988831,26.203024,-13.050914,3.229962,-2.322410,-0.739100,-136.479645,35.980831,175.244766
102,1918663546,-37.144802,28.426941,-10.750151,3.017965,-2.104201,-1.011680,-131.204514,33.277561,178.046875
103,1918680213,-38.058182,30.634638,-8.382293,2.559958,-1.770000,-0.986123,-123.316513,28.696177,178.826126
104,1918696880,-38.613033,32.805889,-5.967515,2.193047,-1.580814,-1.420649,-107.943527,24.919273,177.555359
105,1918713547,-38.912724,34.914253,-3.479604,2.036838,-1.058117,-1.614864,-99.616531,20.199047,175.957428
106,1918730214,-39.108494,36.959072,-0.953412,1.366722,-1.316272,-1.309103,-99.152870,17.249388,172.697479
107,1918746881,-39.309635,38.951073,1.531241,1.157288,-1.156839,-1.442880,-102.193527,17.457882,166.760880
108,1918763548,-39.554089,40.853710,3.975809,0.879142,-0.957981,-1.629178,-107.180222,15.849048,159.556564
109,1918780215,-39.681080,42.585682,6.443474,0.503195,-1.007161,-1.499179,-104.566368,8.709622,151.545563
110,1918796882,-39.528206,44.111702,8.927714,0.276760,-0.908834,-1.366414,-91.549469,0.562684,142.038177
111,1918813549,-39.206764,45.495068,11.384925,0.135306,-0.496804,-1.220740,-83.004189,-3.083731,133.681519
112,1918830216,-38.810486,46.768066,13.708837,-0.423309,-0.448928,-0.871792,-75.137489,-2.384436,123.329788
113,1918846883,-38.451527,47.905243,15.887597,-0.807132,-0.480159,-1.023399,-72.976883,-2.935208,111.972252
114,1918863550,-38.067692,48.871841,17.931814,-0.811220,-0.774886,-1.201541,-67.057190,-5.841135,100.039360
115,1918880217,-37.558372,49.687641,19.816286,-0.621236,-0.898324,-1.344562,-53.516071,-7.511220,88.451134
116,1918896884,-36.994968,50.427074,21.486515,-0.864503,-0.437007,-1.327124,-41.403496,-4.638050,78.237411
117,1918913551,-36.530857,51.085770,22.879906,-1.377410,-0.263009,-0.991638,-35.280682,-0.978719,66.191628
118,1918930218,-36.126514,51.661491,24.068089,-1.359391,-0.400826,-0.583671,-29.812021,0.469993,56.475647
119,1918946885,-35.811317,52.160542,24.931160,-1.459721,-0.089046,-0.713501,-20.223671,4.465014,43.595776
120,1918963552,-35.796127,52.626675,25.372917,-1.751847,0.180299,-0.927578,-18.468624,12.205682,29.626278
121,1918980219,-36.223057,53.037479,25.361694,-2.103930,0.195661,-0.862567,-23.466318,19.156675,14.301182
122,1918996886,-37.008224,53.351299,24.932667,-2.088949,0.309759,-0.056060,-24.894136,23.280752,-1.019518
123,1919013553,-38.139400,53.590157,24.011398,-2.531837,0.596626,0.166320,-21.854511,30.384302,-17.221083
124,1919030220,-39.778133,53.769119,22.530287,-3.211882,0.573980,-0.102053,-25.130060,40.402348,-34.074097
125,1919046887,-41.842991,53.809502,20.521753,-3.849467,-0.537694,-0.355082,-25.072521,47.313705,-52.210522
126,1919063554,-44.058773,53.574238,18.127441,-3.965588,-0.831970,-0.798852,-15.601213,46.566376,-71.803902
127,1919080221,-46.137394,53.030640,15.650454,-3.469236,0.356463,0.036098,-3.977444,38.812542,-85.734482
128,1919096888,-48.161694,52.283546,13.103211,-2.909637,1.974359,1.025365,1.617355,36.404087,-95.867477
129,1919113555,-50.344971,51.525600,10.438241,-3.173496,2.768785,1.785756,-3.595173,43.985638,-98.816765
130,1919130222,-52.521484,50.803043,7.903486,-2.990659,1.969081,1.829414,-10.575702,46.473988,-93.352104
131,1919146889,-54.168240,50.041122,5.752405,-2.149216,1.623551,2.387149,2.208401,37.611935,-85.781578
132,1919163556,-55.234550,49.362617,4.069663,-2.009118,2.425231,2.821938,14.546626,28.706579,-70.994179
133,1919180223,-55.893593,48.878437,2.813489,-1.875875,3.527295,3.294600,18.955921,23.198320,-51.908283
134,1919196890,-56.089180,48.588188,1.995218,-1.704876,3.486801,3.566434,26.661032,16.053881,-32.620274
135,1919213557,-55.725491,48.450752,1.642687,-1.633108,2.803127,3.981253,39.147953,5.943176,-14.772229
136,1919230224,-54.774284,48.398594,1.739055,-1.996616,2.246321,3.635722,54.215321,-5.966835,-0.488683
137,1919246891,-53.254959,48.355225,2.241682,-2.334366,2.236017,2.855597,70.075089,-18.762691,9.542542
138,1919263558,-51.217159,48.238197,3.071173,-2.933737,2.674038,2.220374,86.557503,-31.500782,14.588167
139,1919280225,-48.810246,48.005478,4.083005,-3.231196,2.890460,2.346331,100.648949,-41.048382,15.183065
140,1919296892,-46.198414,47.626526,5.161704,-3.332394,2.824642,2.693338,110.174179,-48.430660,12.413278
141,1919313559,-43.585094,47.104633,6.207301,-2.941919,2.341590,2.689770,112.048828,-53.205494,7.797513
142,1919330226,-41.035748,46.469379,7.185267,-2.499205,1.651486,2.321548,111.589363,-56.265457,3.830558
143,1919346893,-38.520767,45.736820,8.041097,-2.427785,1.399645,1.653568,115.281433,-57.601643,-0.997532
144,1919363560,-36.060581,44.897491,8.774020,-2.670574,1.211439,1.448822,117.717438,-59.851562,-6.157249
145,1919380227,-33.759827,43.961658,9.296843,-2.672750,1.174766,1.236564,117.450882,-59.927807,-14.026754
146,1919396894,-31.828480,42.962162,9.572649,-2.837643,1.070733,0.850598,105.858627,-57.990330,-22.659811
147,1919413561,-30.325111,41.898273,9.623050,-2.495946,0.152031,0.922306,89.511047,-56.911472,-31.321623
148,1919430228,-29.034653,40.785858,9.530911,-1.769593,-0.926273,1.396105,82.425072,-57.037655,-36.945553
149,1919446895,-27.916578,39.645630,9.262856,-1.666168,-0.597810,1.508982,78.817673,-55.399754,-43.705868
150,1919463562,-27.126253,38.469669,8.744194,-2.078840,-0.254731,0.206670,68.376274,-52.540962,-54.321663
151,1919480229,-26.414679,37.111492,8.102363,-2.306826,-1.756813,-0.738666,67.643250,-60.194614,-64.168457
152,1919496896,-25.178606,35.541348,7.415798,-2.289285,-3.147385,-0.815311,99.919563,-71.546448,-71.168175
153,1919513563,-23.285015,33.712658,6.622216,-2.604995,-3.074574,-0.275043,142.030930,-85.172012,-81.043739
154,1919530230,-20.948303,31.722393,5.626697,-2.269041,-2.944282,0.052427,173.856842,-92.937042,-91.789337
155,1919546897,-18.415686,29.670660,4.437902,-1.531842,-2.911430,-0.129624,189.751083,-96.508995,-99.471313
156,1919563564,-15.863589,27.547365,3.056655,-0.834949,-1.621697,-0.922445,194.206589,-101.571312,-107.313370
157,1919580231,-13.497958,25.303328,1.407315,-0.096907,-0.051652,-2.464153,187.388718,-109.067062,-120.076637
158,1919596898,-11.430994,22.973455,-0.523791,1.200122,0.154977,-2.823112,172.818390,-114.953926,-133.626205
159,1919613565,-9.670455,20.617701,-2.729033,1.570798,-0.206382,-2.369586,156.187592,-117.724197,-146.858475
160,1919630232,-8.204642,18.256754,-5.179057,1.954817,-1.054563,-2.372595,138.308578,-119.648918,-159.133972
161,1919646899,-6.874825,15.906686,-7.851658,2.865522,-1.266684,-2.580728,128.347565,-120.902351,-170.630005
162,1919663566,-5.555527,13.669747,-10.788260,4.108834,-1.083308,-2.641009,125.603043,-116.188362,-184.052689
163,1919680233,-4.239220,11.613515,-14.007634,4.987654,-1.304458,-2.623801,122.733734,-108.004318,-198.473373
164,1919696900,-2.909415,9.801212,-17.451160,5.767425,-2.379542,-2.467976,119.668510,-97.002838,-209.554428
165,1919713567,-1.347108,8.327952,-21.007586,6.614133,-3.843084,-2.595561,128.853409,-81.602997,-213.991623
166,1919730234,0.441584,7.379557,-24.461805,7.896163,-3.546694,-1.959552,137.151764,-56.329918,-205.883591
167,1919746901,1.776856,7.117360,-27.303080,7.797688,-2.011990,-1.227827,103.157898,-20.004118,-168.908676
168,1919763568,2.166045,7.545121,-29.142948,6.258996,0.119196,-1.436801,38.973656,20.931412,-110.431061
169,1919780235,1.518818,8.147762,-29.979265,4.107615,3.654318,-1.636869,-30.463757,33.627048,-50.973988
170,1919796902,0.279556,8.421587,-29.894146,2.288164,4.873703,-1.205865,-73.605545,15.605331,4.663660
171,1919813569,-1.219601,8.507118,-29.262272,3.366107,4.463665,-0.736528,-94.075783,3.920569,37.406116
172,1919830236,-3.348000,8.583249,-28.209538,3.099908,2.918128,-0.886640,-135.664383,1.177207,62.460045
173,1919846903,-6.006494,8.805519,-26.896509,2.975341,1.033992,-1.175859,-170.011734,6.053843,78.575409
174,1919863570,-9.074458,9.427891,-25.465080,3.667861,-0.023016,-0.735853,-196.284286,25.019884,88.846619
175,1919880237,-12.361985,10.505774,-23.932867,3.873096,0.058036,-1.716668,-211.759949,45.856258,100.888123
176,1919896904,-15.593590,11.897293,-22.232576,4.636427,-0.104790,-2.140253,-212.308350,56.018875,117.190773
177,1919913571,-18.648542,13.397799,-20.438570,4.592524,-0.151066,-1.317194,-205.461060,54.317490,126.804855
178,1919930238,-21.494423,14.938812,-18.604639,3.286278,-1.244616,-0.476066,-196.282120,49.452370,131.884552
179,1919946905,-24.203230,16.560362,-16.717985,3.383468,-1.905234,-0.562022,-191.837830,46.591351,138.141037
180,1919963572,-26.894526,18.310362,-14.737143,4.395133,-1.733928,-1.149418,-195.658005,45.076748,147.587479
181,1919980239,-29.551620,20.150517,-12.775128,3.890286,-1.459893,-1.086549,-196.747131,43.989166,150.169662
182,1919996906,-32.180920,22.005129,-10.904017,1.715004,-2.017267,-1.217765,-196.670715,41.052979,147.060593
183,1920013573,-34.661575,23.835136,-9.152887,0.846718,-2.658897,-1.345295,-188.276489,37.622372,141.322037
184,1920030240,-36.940987,25.641796,-7.476774,1.653015,-2.225612,-1.100691,-177.349152,33.750538,137.592728
185,1920046907,-39.143269,27.510473,-5.895931,2.411654,-1.205666,-1.096429,-173.049484,35.284298,136.026321
186,1920063574,-41.391930,29.494551,-4.495458,1.797936,-1.212592,-0.858483,-173.484634,42.354446,133.443893
187,1920080241,-43.584019,31.513783,-3.319022,0.289620,-1.679070,-0.501482,-165.812531,47.500660,126.855988
188,1920096908,-45.635498,33.465103,-2.453206,-0.916790,-1.501530,-1.137530,-149.439438,51.793964,113.607933
189,1920113575,-47.615559,35.280323,-1.813534,-0.904785,-1.651862,-1.290252,-138.908569,50.967529,101.116966
190,1920130242,-49.532124,36.977200,-1.315207,-0.303382,-1.150605,-1.187890,-131.056290,48.423737,92.523277
191,1920146909,-51.471416,38.603397,-0.946562,0.142036,-0.846984,-0.674702,-128.338593,47.720009,86.618660
192,1920163576,-53.475647,40.167240,-0.729144,-0.292314,-0.473113,-0.299886,-126.959900,48.284187,80.777283
193,1920180243,-55.584362,41.620865,-0.687450,-0.860933,-0.760068,-0.267038,-126.588829,48.179272,72.352463
194,1920196910,-57.737476,42.940331,-0.768961,-0.858394,-1.167197,-0.190191,-124.324608,45.618469,64.374168
195,1920213577,-59.738277,44.084686,-1.050640,-0.636682,-1.322408,-0.422956,-106.842331,45.169239,52.556763
196,1920230244,-61.677483,45.056927,-1.516580,-0.995952,-0.681693,-0.026600,-95.164375,44.951012,41.355865
197,1920246911,-63.520916,45.846058,-2.112497,-1.024718,-0.529743,0.970687,-83.556755,43.083076,30.712263
198,1920263578,-65.139153,46.457268,-2.755411,-1.146007,-0.507386,1.387023,-67.712578,38.979015,21.693478
199,1920280245,-66.547302,46.905155,-3.466750,-1.309013,-0.346908,1.144409,-51.877453,36.710430,12.746226
200,1920296912,-67.898575,47.198498,-4.313876,-1.482792,-0.013153,0.869389,-42.314243,37.729053,3.024350
201,1920313579,-69.065826,47.283413,-5.185164,-1.821200,-0.153592,1.226430,-30.101730,33.863613,-8.084261
202,1920330246,-69.923691,47.212185,-6.044839,-1.945620,-0.085348,1.739251,-12.048089,30.269114,-16.086206
203,1920346913,-70.601059,46.980999,-6.833624,-2.962188,0.573942,1.517839,-4.428505,24.606115,-23.767315
204,1920363580,-71.280632,46.613644,-7.517852,-3.613959,0.854530,1.382655,-9.302177,18.327717,-29.857899
205,1920380247,-71.752769,46.118565,-8.048990,-3.303848,1.462986,2.198951,-3.723950,10.396622,-35.018959
206,1920396914,-71.861908,45.580158,-8.450324,-3.481789,2.109365,2.573138,12.261010,4.804487,-35.824512
207,1920413581,-71.849976,45.078629,-8.747398,-3.717341,2.777415,2.429518,14.915861,1.494578,-32.422840
208,1920430248,-71.760048,44.634621,-8.884273,-3.726068,2.945357,2.417806,12.702421,-3.825973,-27.080355
209,1920446915,-71.384972,44.284378,-8.762994,-3.243931,3.032387,2.460588,18.910969,-12.603100,-18.279673
210,1920463582,-70.570778,44.116226,-8.352139,-3.040421,3.301356,2.225632,33.156223,-21.023441,-3.788370
211,1920480249,-69.427299,44.153236,-7.712455,-3.250207,3.555712,1.755644,43.359589,-26.146086,11.470199
212,1920496916,-68.137589,44.353020,-6.881932,-3.535007,3.460232,1.255231,44.069649,-29.947399,24.025101
213,1920513583,-66.813187,44.678493,-5.836003,-3.808106,2.961616,0.996345,36.915001,-34.861607,35.084602
214,1920530250,-65.385262,45.093163,-4.587483,-3.899626,2.054950,1.141861,34.248070,-39.450981,44.123875
215,1920546917,-63.721718,45.558681,-3.106817,-3.702180,0.940836,1.495635,38.062569,-45.408596,51.904819
216,1920563584,-61.679428,46.049644,-1.381459,-3.471038,-0.453670,1.994264,49.738651,-51.631954,59.096184
217,1920580251,-59.045895,46.520802,0.610421,-3.262525,-1.443959,2.269608,73.048157,-58.835201,65.215675
218,1920596918,-55.843533,46.916840,2.784247,-3.313299,-0.651835,1.905770,98.609116,-63.628658,67.934372
219,1920613585,-52.465790,47.192760,4.913433,-3.850358,0.868319,1.360629,110.567696,-61.919991,64.163864
220,1920630252,-49.278736,47.309532,6.825138,-4.314999,1.707832,0.769777,108.408379,-57.049301,54.321587
221,1920646919,-46.374176,47.262104,8.475562,-4.174864,1.511718,0.952773,102.920494,-52.776253,42.721828
222,1920663586,-43.636494,47.016781,9.823162,-3.680204,1.069060,1.280059,106.381424,-50.400314,28.188774
223,1920680253,-41.160675,46.563343,10.806776,-3.409626,1.069881,1.153896,106.918976,-48.447498,11.187079
224,1920696920,-39.156929,45.882561,11.361929,-3.222882,1.260080,0.835819,97.552368,-47.203533,-9.053826
225,1920713587,-37.574844,44.991207,11.462193,-2.570950,0.788325,0.844981,92.004593,-45.690857,-30.223362
226,1920730254,-36.277107,43.900295,11.206534,-2.021483,0.311788,0.913380,89.965683,-46.896473,-48.425838
227,1920746921,-35.289448,42.622807,10.644216,-1.498095,-0.013811,0.511271,83.738281,-48.976780,-65.102455
228,1920763588,-34.788807,41.192207,9.782775,-0.997239,0.220381,-0.521407,65.916107,-49.369461,-81.125000
229,1920780255,-34.508518,39.603439,8.744500,-0.262385,-1.367281,-0.826580,58.546661,-52.628632,-93.577217
230,1920796922,-33.915348,37.791851,7.633279,0.320071,-2.382165,-0.723257,78.638397,-61.821602,-104.488625
231,1920813589,-33.095322,35.851917,6.401485,0.875313,-1.552163,-0.436483,94.871033,-65.600159,-113.913795
232,1920830256,-32.410892,33.890934,5.011156,1.197334,-0.896303,-0.510895,90.149147,-63.131454,-121.528519
233,1920846923,-31.665854,31.889006,3.576598,2.090882,-2.502413,-0.898193,92.838463,-64.689072,-125.286026
234,1920863590,-30.534403,29.835039,2.200486,2.713011,-3.250965,-1.295770,111.655228,-70.123253,-124.626129
235,1920880257,-29.186150,27.817699,0.728948,2.506782,-2.307234,-1.555372,124.900581,-67.663826,-127.602867
236,1920896924,-28.093878,25.950893,-0.975475,2.625854,-0.813132,-2.265574,113.234734,-55.780533,-133.970947
237,1920913591,-27.277279,24.160965,-2.874945,2.292264,-0.686571,-2.834834,98.727966,-48.311340,-141.534241
238,1920930258,-26.425852,22.338984,-4.870228,2.566221,-1.149742,-3.128272,99.819794,-49.014488,-147.713043
239,1920946925,-25.414505,20.507915,-6.902975,2.961692,-0.876522,-2.776567,106.715508,-50.331856,-150.329422
240,1920963592,-24.353624,18.664572,-9.034922,3.174582,-0.516831,-2.039793,108.026855,-50.751965,-156.037491
241,1920980259,-23.314665,16.798000,-11.213982,3.820765,-0.789835,-1.711114,103.654152,-53.227863,-159.331192
242,1920996926,-22.274155,14.989016,-13.295705,4.904403,-0.952615,-1.380478,98.138527,-54.605049,-152.945526
243,1921013593,-21.301399,13.409292,-15.241668,5.436726,-0.728958,-1.512938,88.513062,-47.049709,-140.425919
244,1921030260,-20.465437,12.105312,-17.038664,5.266665,-0.082363,-1.601221,75.474037,-36.632835,-126.260391
245,1921046927,-19.782660,11.132554,-18.589375,4.677497,0.281229,-1.976612,61.207100,-24.433870,-105.765724
246,1921063594,-19.271416,10.468496,-19.723581,4.077072,0.605996,-1.653118,44.919418,-16.168362,-76.426926
247,1921080261,-18.956242,10.087617,-20.399059,3.470811,1.483660,-1.270344,27.622892,-9.472364,-45.263546
248,1921096928,-18.986013,9.973602,-20.604626,3.205853,2.437180,-1.203430,1.826897,-3.439839,-13.808968
249,1921113595,-19.379911,10.040427,-20.349319,2.810852,2.458609,-0.965518,-24.851833,-2.075326,15.466191
250,1921130262,-20.057465,10.249290,-19.711901,2.724495,1.884664,-0.972998,-45.963581,-1.797638,39.569824
251,1921146929,-21.024092,10.655663,-18.762102,2.968587,1.236617,-0.779816,-66.923332,2.288234,60.937603
252,1921163596,-22.300049,11.333142,-17.557974,3.309380,0.625288,-0.554696,-88.929497,10.733442,80.826004
253,1921180263,-23.792654,12.233897,-16.147554,3.105613,-0.030031,-0.358928,-105.434914,16.449551,97.313766
254,1921196930,-25.324362,13.328012,-14.616091,3.149046,-0.306568,-0.682865,-110.823868,21.629896,108.723892
255,1921213597,-26.909647,14.628271,-13.037034,3.500823,-0.344498,-1.244315,-116.590881,28.759443,116.843430
256,1921230264,-28.656162,16.137060,-11.406661,3.755836,-0.449112,-1.543034,-129.318893,35.326065,125.606087
257,1921246931,-30.570810,17.785583,-9.734184,3.132336,-0.844971,-0.908336,-142.725479,37.772430,132.318314
258,1921263598,-32.599205,19.522181,-8.104000,2.469100,-0.671704,-1.086550,-151.547012,39.446980,133.530777
259,1921280265,-34.818813,21.338629,-6.555310,2.824129,-0.400821,-1.678805,-164.157944,41.570305,132.952606
260,1921296932,-37.202789,23.259113,-5.023662,3.516756,-0.403944,-2.377800,-176.442764,42.454845,136.586700
261,1921313599,-39.829029,25.295904,-3.511826,3.285931,-0.363501,-1.811752,-193.391190,43.370056,140.888000
262,1921330266,-42.596039,27.350817,-2.168257,1.449520,-0.825367,-0.791308,-200.279434,44.390633,135.706421
263,1921346933,-45.452824,29.406506,-1.028876,0.676769,-1.369747,-1.031728,-202.399689,46.123711,129.105789
264,1921363600,-48.338730,31.445986,-0.031505,0.988507,-1.463429,-1.109945,-201.951996,45.158104,124.765060
265,1921380267,-51.105698,33.465672,0.891383,1.604595,-1.237540,-1.373863,-194.215256,41.890446,122.836800
266,1921396934,-53.701378,35.502853,1.753408,2.106107,-0.776396,-1.356485,-183.497025,39.968040,123.056007
267,1921413601,-56.125439,37.553940,2.525010,1.571609,-0.904929,-0.129738,-171.468918,39.455635,122.303078
268,1921430268,-58.464222,39.582954,3.101075,0.265274,-1.220175,0.567378,-160.335770,42.180271,117.274803
269,1921446935,-60.724426,41.535137,3.485855,0.016202,-1.450631,0.116879,-149.077927,43.275532,110.136681
270,1921463602,-62.769138,43.360870,3.761953,0.705283,-1.614041,-0.375267,-132.319824,40.178310,102.522247
271,1921480269,-64.453651,45.079250,4.014957,1.448860,-1.232367,-0.388857,-110.110222,35.147919,97.446266
272,1921496936,-65.832397,46.711712,4.212771,1.333840,-0.693196,0.020363,-89.698624,32.727753,92.606232
273,1921513603,-66.968735,48.197395,4.358123,0.740555,-0.659274,0.240211,-73.058838,29.319632,84.312843
274,1921530270,-67.867050,49.496624,4.470701,0.339210,-0.991081,0.318406,-57.437916,24.856941,73.956139
275,1921546937,-68.414719,50.559807,4.559648,0.022597,-1.167189,0.375864,-35.402939,19.581758,60.755039
276,1921563604,-68.635849,51.402271,4.593516,-0.328014,-0.865465,0.281700,-13.301890,16.315105,47.779827
277,1921580271,-68.688019,52.029419,4.485350,-1.076286,-0.238624,0.380865,3.509387,16.431749,33.857361
278,1921596938,-68.867599,52.471916,4.163752,-1.865391,0.114452,0.833696,6.024924,19.613987,20.733074
279,1921613605,-69.185272,52.758873,3.645283,-2.533834,0.374731,1.465259,7.198229,22.787844,9.564502
280,1921630272,-69.661301,52.887096,2.906490,-3.326380,0.963768,1.494675,8.293280,26.767847,-1.980328
281,1921646939,-70.400810,52.849339,1.928785,-4.192812,1.734379,1.382332,3.920879,31.494078,-14.016801
282,1921663606,-71.419708,52.655010,0.783129,-4.957171,2.356774,1.738691,-4.898485,34.491970,-24.446589
283,1921680273,-72.479759,52.343189,-0.364541,-5.529580,2.923043,2.406943,-7.471561,33.050083,-30.634474
284,1921696940,-73.419426,51.963272,-1.383344,-6.404759,3.718933,2.863107,-6.619096,28.169809,-32.685802
285,1921713607,-74.236374,51.579159,-2.204941,-6.755837,3.718326,2.996660,-8.823236,21.879961,-30.573782
286,1921730274,-74.655319,51.279408,-2.682608,-6.541700,3.144288,3.242269,-1.275912,11.401359,-22.108419
287,1921746941,-74.422318,51.104458,-2.644953,-6.354072,2.854485,2.688920,13.662271,-5.148978,-9.775700
288,1921763608,-73.546951,51.045200,-2.105363,-6.133711,2.354127,2.081064,28.764458,-21.515165,2.114716
289,1921780275,-72.062714,51.071728,-1.105406,-5.360507,1.851793,2.111856,43.814186,-36.532856,12.545397
290,1921796942,-69.997337,51.115059,0.305113,-4.992823,1.808557,2.424770,59.478996,-50.401119,19.578671
291,1921813609,-67.463852,51.101871,2.014838,-4.908364,2.086650,2.602604,73.565445,-61.290462,22.433384
292,1921830276,-64.681839,50.996555,3.879957,-4.783773,1.846455,2.108339,81.282684,-67.850655,22.533772
293,1921846943,-61.860920,50.761776,5.779602,-4.376930,0.968932,1.747082,82.204056,-71.555656,19.510708
294,1921863610,-59.004707,50.384968,7.666109,-3.720293,-0.683046,2.177429,85.313965,-74.674667,15.529598
295,1921880277,-55.983265,49.879673,9.517730,-2.839990,-1.223010,2.276469,97.382317,-77.362946,12.406163
296,1921896944,-52.854198,49.273472,11.265246,-2.414312,-0.450138,2.380074,109.287109,-77.489708,9.672462
297,1921913611,-49.883183,48.639900,12.746593,-2.069747,-0.110891,2.373079,112.589180,-70.368385,6.422662
298,1921930278,-47.237820,47.999489,13.880720,-1.857582,-0.407568,1.999442,109.259697,-60.411194,0.816315
299,1921946945,-44.894241,47.323235,14.677884,-1.852056,-1.123177,0.873904,106.616638,-52.424007,-7.199066
300,1921963612,-42.655659,46.484581,15.166839,-1.678464,-2.070513,-0.042510,114.253517,-51.290794,-20.673988
301,1921980279,-40.491486,45.513737,15.394752,-0.861480,-2.046793,-0.229331,121.374802,-50.994648,-31.880728
302,1921996946,-38.555733,44.490673,15.354638,-0.397637,-1.058299,0.137211,119.217018,-47.395725,-40.708004
303,1922013613,-37.045109,43.447563,15.039687,-0.153317,-0.465424,0.815291,105.132065,-42.258904,-49.429615
304,1922030280,-35.885529,42.329491,14.495075,-0.195362,-0.940062,-0.039357,93.188591,-40.871555,-59.440884
305,1922046947,-34.815155,41.093575,13.809053,0.076426,-1.984203,-0.889649,92.992691,-43.862637,-68.275665
306,1922063614,-33.527958,39.678654,12.974075,0.057426,-2.312325,-1.631782,111.080612,-49.976311,-79.554611
307,1922080281,-32.038349,38.096241,11.958918,-0.174087,-2.195762,-2.144480,129.014343,-55.334862,-91.554558
308,1922096948,-30.476742,36.397785,10.798721,0.143953,-1.742932,-2.110370,137.238831,-59.558323,-100.522469
309,1922113615,-28.748373,34.612350,9.486341,0.424839,-1.541115,-1.511065,150.852295,-62.665592,-108.926605
310,1922130282,-26.969599,32.731728,7.954198,0.196115,-0.489082,-1.445244,159.124832,-65.219780,-120.615570
311,1922146949,-25.461319,30.757961,6.121623,0.258858,0.543461,-2.905534,149.786270,-66.147736,-136.439865
312,1922163616,-24.332991,28.682055,4.017691,1.023880,0.793831,-3.933069,131.729462,-68.026909,-152.108322
313,1922180283,-23.381035,26.515368,1.642443,1.617941,0.623113,-4.310860,124.588554,-69.002731,-168.303802
314,1922196950,-22.532570,24.303497,-0.988142,2.546401,0.733695,-4.301134,120.084564,-67.772606,-183.242615
315,1922213617,-21.925064,22.138491,-3.842752,3.880511,0.824468,-3.846766,105.444244,-61.854332,-195.044998
316,1922230284,-21.792952,20.156332,-6.875934,5.254323,1.026652,-3.511159,75.057205,-48.310215,-201.995712
317,1922246951,-22.241873,18.400759,-10.022514,6.241120,0.992005,-3.422712,36.876659,-31.943621,-204.862320
318,1922263618,-23.162388,16.859543,-13.186498,6.742771,0.808220,-3.288301,3.748562,-16.547693,-202.747086
319,1922280285,-24.447683,15.465679,-16.190372,6.348334,0.845468,-2.794201,-25.470322,-7.673713,-192.282425
320,1922296952,-25.936237,14.165756,-18.862123,5.333968,0.843971,-1.797975,-46.859089,-5.609936,-173.566025
321,1922313619,-27.451347,13.032884,-21.007866,4.378069,1.005524,-0.857513,-59.192551,-5.488596,-142.461609
322,1922330286,-28.789282,12.190091,-22.434303,3.559569,1.201008,-0.086712,-60.171844,-6.193182,-97.615776
323,1922346953,-29.728846,11.672692,-23.029684,2.932186,1.186705,0.094099,-47.591331,-10.948627,-45.775066
324,1922363620,-30.239792,11.416782,-22.891085,2.588689,1.432449,-0.278702,-30.937000,-18.305248,-0.724715
325,1922380287,-30.465448,11.353945,-22.212946,2.230407,1.173196,-0.418109,-20.200714,-24.333609,32.413673
326,1922396954,-30.588097,11.552805,-21.210241,2.717530,0.732863,-0.175445,-17.944420,-20.585264,56.751701
327,1922413621,-30.933975,12.143167,-20.022728,3.561828,1.101579,0.087658,-34.025021,-6.126176,77.943527
328,1922430288,-31.751423,13.154408,-18.637434,4.006052,1.261046,-0.270868,-65.897606,8.752353,100.740791
329,1922446955,-32.976265,14.419452,-17.102770,4.105695,0.506485,-0.501301,-94.088852,15.377426,116.095909
330,1922463622,-34.487991,15.866260,-15.536167,3.972914,-0.305903,-0.721166,-113.909973,20.969055,123.602234
331,1922480289,-36.266788,17.482986,-14.034205,3.693346,-0.921064,-0.794600,-131.233673,28.291285,126.514160
332,1922496956,-38.226574,19.236969,-12.543113,3.361141,-1.274436,-0.965496,-144.405746,31.574787,131.277466
333,1922513623,-40.171200,21.068289,-10.939637,3.369837,-1.486551,-1.186483,-148.445816,27.275763,139.450531
334,1922530290,-41.994881,22.961784,-9.252691,3.403993,-1.335187,-0.906785,-145.970596,23.184242,145.424301
335,1922546957,-43.724476,24.907995,-7.667449,2.426681,-1.238046,-0.229849,-140.959213,25.686562,143.214355
336,1922563624,-45.454700,26.868658,-6.287914,1.277137,-1.473707,-0.495534,-138.535614,30.727444,135.698013
337,1922580291,-47.177410,28.821079,-5.025804,1.494420,-1.803750,-1.212152,-137.299484,31.711309,131.058853
338,1922596958,-48.682190,30.735012,-3.786903,2.104696,-1.651431,-1.308434,-125.756813,28.265924,128.588531
339,1922613625,-49.959637,32.687992,-2.646268,1.846991,-0.801275,-1.014905,-111.165710,31.429785,126.950012
340,1922630292,-51.218887,34.674744,-1.685620,0.657438,-0.325235,-0.369938,-106.050674,37.827560,122.698860
341,1922646959,-52.533939,36.617233,-0.928273,-0.388777,-0.730078,-0.120094,-103.913582,42.097446,114.643318
342,1922663626,-53.923954,38.488533,-0.383391,-0.246285,-0.895260,-0.869905,-101.845787,45.631870,105.615379
343,1922680293,-55.448841,40.310753,-0.068069,0.379225,-0.749578,-1.621275,-102.016739,50.436909,97.833900
344,1922696960,-57.198311,42.109802,-0.000106,0.634724,-0.019284,-1.478553,-106.168434,56.452614,91.707230
345,1922713627,-59.370811,43.906292,-0.180959,0.084567,0.941871,-0.621476,-121.459274,62.559029,87.705261
346,1922730294,-61.962219,45.658936,-0.649573,-0.549083,0.786326,0.296909,-134.188507,68.048996,82.086250
347,1922746961,-64.860985,47.334080,-1.375485,-0.706203,-0.186445,-0.051970,-140.853806,70.919472,76.643204
348,1922763628,-67.899826,48.909451,-2.311221,-0.140814,-1.058931,-0.500127,-139.045898,71.317902,71.770264
349,1922780295,-70.955994,50.377415,-3.477201,0.234214,-1.452368,-0.545323,-128.585495,72.445709,66.727913
350,1922796962,-73.919472,51.742817,-4.859161,0.151746,-1.445657,0.007535,-111.841347,73.468704,62.568489
351,1922813629,-76.764862,52.975342,-6.441760,-0.037953,-1.408875,0.199767,-94.057663,73.862984,57.060154
352,1922830296,-79.414696,54.070362,-8.144685,-0.141193,-1.580423,0.473330,-75.363037,72.022682,51.941723
353,1922846963,-81.762802,55.007217,-9.865483,-0.989625,-1.415767,0.652212,-55.324684,67.299110,45.849819
354,1922863630,-83.799805,55.785046,-11.524811,-1.459370,-1.612091,0.805671,-38.811832,60.956612,39.381947
355,1922880297,-85.470360,56.355953,-13.088067,-1.933356,-1.388123,0.762260,-20.947903,54.315056,29.389355
356,1922896964,-86.725494,56.730217,-14.485122,-2.239743,-0.928548,1.473436,-3.915910,46.609955,19.428900
357,1922913631,-87.481491,56.963097,-15.569461,-2.823538,-0.331085,2.419998,10.565187,35.208740,12.314876
358,1922930298,-87.775818,57.067188,-16.287437,-3.618556,0.536362,2.817205,19.928251,22.655693,5.409363
359,1922946965,-87.716324,57.077847,-16.671322,-4.423764,1.565509,2.797805,24.360706,11.502098,0.262793
360,1922963632,-87.383751,57.003883,-16.697647,-5.351897,2.317691,2.667380,22.736712,-0.361972,-4.384570
361,1922980299,-86.886009,56.871922,-16.358065,-5.823864,2.565917,2.717310,14.240816,-12.525525,-7.300526
362,1922996966,-86.230568,56.730396,-15.628609,-5.887117,2.590240,2.688648,4.153180,-25.452719,-7.026823
363,1923013633,-85.381195,56.643948,-14.511073,-5.626016,2.466649,2.795269,-3.622308,-38.124393,-2.508457
364,1923030300,-84.174805,56.607330,-13.015160,-5.290963,2.632107,2.559627,-1.126777,-50.384575,2.239601
365,1923046967,-82.589798,56.595753,-11.230139,-5.048625,3.226556,1.886224,7.126011,-59.650810,6.002803
366,1923063634,-80.720039,56.588783,-9.229038,-4.983937,3.480782,1.444546,13.389714,-66.467171,9.043501
367,1923080301,-78.663643,56.550892,-7.079874,-4.732355,2.895475,1.413729,17.191618,-71.289597,10.305296
368,1923096968,-76.425453,56.449631,-4.805018,-4.381805,1.843731,1.435399,21.888107,-75.850838,10.114456
369,1923113635,-74.022926,56.232662,-2.452553,-4.051353,1.030572,1.438458,28.072882,-79.942596,7.137499
370,1923130302,-71.562523,55.865547,-0.108577,-3.897699,0.704641,1.222978,32.364182,-82.525757,1.947637
371,1923146969,-69.168823,55.326843,2.138829,-3.546735,0.677240,1.379014,33.759251,-83.607178,-5.112697
372,1923163636,-66.835464,54.623657,4.248826,-3.228361,0.538921,1.629792,37.716969,-84.163528,-12.190494
373,1923180303,-64.598457,53.769470,6.166845,-3.019491,0.113245,1.550724,42.265892,-83.440468,-19.334303
374,1923196970,-62.439713,52.745792,7.893573,-2.771945,-0.825920,1.252107,47.879963,-83.866974,-27.658642
375,1923213637,-60.289513,51.552662,9.445910,-2.177799,-1.834339,0.899748,56.839016,-85.486473,-35.773735
376,1923230304,-58.035614,50.185902,10.819109,-1.859755,-2.314582,0.642630,72.688255,-87.720909,-44.096092
377,1923246971,-55.696247,48.676716,11.998509,-1.483486,-2.241037,0.129346,87.976730,-89.092804,-51.013485
378,1923263638,-53.391827,47.072899,12.971638,-1.421588,-1.748001,0.049061,96.333153,-88.801308,-56.010700
379,1923280305,-51.226345,45.367744,13.703348,-1.502106,-1.638470,-0.053145,99.604828,-87.687332,-62.733540
380,1923296972,-49.226887,43.542133,14.242063,-1.304584,-1.751029,-0.823779,98.704903,-88.925461,-69.772545
381,1923313639,-47.313187,41.597675,14.596717,-0.746371,-1.945563,-1.280567,101.802917,-90.486618,-76.980682
382,1923330306,-45.419884,39.555801,14.750797,-0.711960,-1.839285,-1.562585,108.965218,-90.772850,-84.166481
383,1923346973,-43.658421,37.429150,14.700181,-0.663543,-1.480976,-1.860369,108.965652,-90.448357,-91.525864
384,1923363640,-42.089901,35.236252,14.480827,-0.174678,-1.032259,-2.006046,103.301491,-90.390831,-97.620674
385,1923380307,-40.629017,33.019413,14.109565,0.325237,-1.067478,-1.546222,101.549835,-88.838272,-102.052887
386,1923396974,-39.162025,30.812834,13.577260,0.425751,-1.040722,-1.299662,106.308418,-85.382767,-106.027382
387,1923413641,-37.656254,28.610100,12.844324,0.640477,-0.891090,-2.084442,113.552696,-81.036972,-112.337738
388,1923430308,-36.149181,26.439381,11.923079,1.353882,-0.765586,-2.492012,117.388725,-75.920563,-117.696075
389,1923446975,-34.496147,24.310968,10.844877,1.638840,-0.970065,-2.404491,128.333908,-71.603424,-121.803749
390,1923463642,-32.567730,22.220959,9.629040,1.991534,-0.872384,-2.042016,145.955597,-68.713890,-125.401169
391,1923480309,-30.407650,20.212320,8.268818,2.244131,-0.250617,-1.752466,160.585724,-64.231911,-128.077576
392,1923496976,-28.180868,18.308094,6.705932,2.451363,0.663438,-1.651281,165.988892,-57.520809,-133.338226
393,1923513643,-26.114832,16.516651,4.956757,2.843025,1.151948,-1.545338,156.826447,-51.125748,-138.376770
394,1923530310,-24.289564,14.856050,3.005396,3.213351,1.188907,-1.374343,142.630997,-43.310974,-144.622650
395,1923546977,-22.683199,13.325555,0.880110,3.419476,0.927081,-1.228543,128.886856,-36.069569,-150.220459
396,1923563644,-21.317785,11.908504,-1.339359,3.910552,0.948788,-1.192567,112.476555,-31.265923,-152.518417
397,1923580311,-20.261229,10.638604,-3.572524,4.481875,0.944986,-0.911091,91.053871,-25.686544,-150.058914
398,1923596978,-19.417650,9.573956,-5.766457,4.887619,1.072187,-0.589090,75.179237,-17.175249,-143.735138
399,1923613645,-18.889803,8.729325,-7.827610,5.218802,2.062523,-0.673968,52.802998,-8.857173,-132.108368
400,1923630312,-18.899315,8.129472,-9.583704,5.123268,2.442314,-0.622993,16.328203,-1.318561,-110.403374
401,1923646979,-19.388828,7.734037,-10.939825,4.473963,2.499701,-0.567522,-16.704960,3.020501,-84.041496
402,1923663646,-20.254084,7.510220,-11.847404,3.895155,2.832577,-0.579651,-43.273643,4.696919,-55.456177
403,1923680313,-21.452209,7.465879,-12.288764,3.673749,3.236201,-0.527935,-67.037529,5.906261,-25.603777
404,1923696980,-22.885902,7.572905,-12.283240,3.277120,3.059964,-0.449907,-84.687691,4.887008,2.607753
405,1923713647,-24.397982,7.820730,-11.862414,3.276953,2.065450,-0.478662,-92.748489,2.665442,28.771734
406,1923730314,-25.882477,8.268615,-11.039890,3.588785,1.199812,-0.298323,-94.628479,2.662790,55.544575
407,1923746981,-27.282829,8.916103,-9.904893,3.734864,0.690652,-0.067947,-92.853523,3.722786,77.504189
408,1923763648,-28.556263,9.774630,-8.555100,3.971315,0.318889,-0.222533,-88.216499,7.228133,94.645409
409,1923780315,-29.760693,10.813917,-7.057868,4.004421,0.089326,-0.419185,-86.976456,10.539207,107.497032
410,1923796982,-30.909916,11.958974,-5.507307,3.461251,-0.135165,-0.301298,-85.973312,12.404054,113.356392
411,1923813649,-31.981052,13.164522,-3.954547,2.989969,-0.326073,-0.550929,-83.176544,13.455197,115.274277
412,1923830316,-33.011402,14.434117,-2.397466,3.107837,-0.244293,-1.045360,-82.740479,14.706860,117.414490
413,1923846983,-34.038357,15.751596,-0.814624,3.509443,-0.056422,-1.048211,-84.974159,14.468007,120.082748
414,1923863650,-35.084827,17.138998,0.731028,3.108996,0.183143,-0.623080,-87.658272,17.324913,120.467789
415,1923880317,-36.130730,18.532841,2.213386,1.983930,-0.074892,-0.188573,-88.605659,17.934715,117.545837
416,1923896984,-37.109997,19.896435,3.622235,1.575004,-0.561307,-0.476004,-85.177132,17.293020,112.899178
417,1923913651,-37.983360,21.248503,4.976773,2.206112,-0.673576,-1.048965,-79.550339,17.195276,109.805748
418,1923930318,-38.714161,22.635807,6.285707,2.609754,-0.391749,-1.149366,-71.772797,19.329739,108.828728
419,1923946985,-39.296692,24.125061,7.492206,2.072178,-0.157097,-0.675346,-62.243584,26.871666,107.938576
420,1923963652,-39.836224,25.658728,8.578092,1.182194,-0.235692,-0.590913,-58.353634,32.547413,104.252235
421,1923980319,-40.341297,27.194862,9.565704,1.044101,-0.666268,-1.081844,-55.225063,35.599384,100.034805
422,1923996986,-40.745602,28.754858,10.471737,1.786700,-0.488835,-1.319585,-48.300556,39.170868,97.421120
423,1924013653,-41.087574,30.398983,11.278735,1.803091,-0.130514,-1.193811,-42.951397,46.213909,96.537453
424,1924030320,-41.588612,32.117275,11.966777,1.139290,0.196885,-0.682499,-50.006516,53.353416,94.707123
425,1924046987,-42.413960,33.877750,12.560268,0.429287,0.003123,-0.719398,-67.433228,57.762035,93.000046
426,1924063654,-43.461166,35.635418,13.083511,0.409342,-0.649172,-0.566441,-79.245827,58.880447,90.854729
427,1924080321,-44.618675,37.385620,13.521492,0.459719,-0.780384,-0.899667,-83.594810,60.039898,88.322495
428,1924096988,-45.946774,39.135666,13.821973,0.730780,-0.750820,-1.209640,-89.353226,63.044327,84.722595
429,1924113655,-47.575069,40.905163,13.892757,0.701012,-0.802189,-1.140538,-98.927269,69.575676,79.730667
430,1924130322,-49.535488,42.654530,13.695694,0.323578,-1.194924,-0.522232,-108.242050,75.283455,73.011726
431,1924146989,-51.710342,44.331150,13.249803,-0.342722,-1.739828,-0.135230,-110.568733,78.008476,65.623344
432,1924163656,-54.033333,45.927631,12.526566,-0.286396,-2.122682,-0.468984,-107.114174,81.392036,58.071804
433,1924180323,-56.407974,47.426922,11.489596,-0.185300,-2.356895,-0.387931,-95.701599,85.516411,49.720943
434,1924196990,-58.778305,48.776382,10.147655,-0.536501,-2.170167,-0.103824,-80.775276,87.906540,39.729351
435,1924213657,-61.086514,49.975754,8.548073,-0.841442,-1.768910,0.612720,-64.136452,89.231003,31.160479
436,1924230324,-63.278950,51.016277,6.714963,-1.518083,-1.500472,0.944557,-45.175900,90.094482,22.753279
437,1924246991,-65.335686,51.854103,4.702741,-1.940800,-1.404561,1.159186,-27.501066,88.684914,12.850244
438,1924263658,-67.158264,52.440292,2.582806,-2.380816,-0.864356,1.564122,-7.431470,84.658386,0.923714
439,1924280325,-68.675331,52.758549,0.431308,-2.984072,-0.035825,1.863743,13.012876,78.879318,-11.618955
440,1924296992,-69.971664,52.815346,-1.675409,-3.244731,1.169184,1.927268,24.364588,71.766823,-23.654045
441,1924313659,-71.253014,52.649548,-3.774650,-3.608594,2.154125,1.811378,24.822283,67.685905,-34.573418
442,1924330326,-72.537880,52.311432,-5.792864,-3.480458,2.640724,1.581469,20.408489,62.843422,-42.094379
443,1924346993,-73.724037,51.860146,-7.681365,-2.852422,2.535251,1.756408,19.664021,57.825989,-46.035137
444,1924363660,-74.529037,51.375401,-9.347734,-2.596795,2.676656,1.907569,31.503820,50.817509,-44.896198
445,1924380327,-74.871712,50.867229,-10.816051,-2.928990,2.833421,1.555298,49.439949,44.360966,-43.963772
446,1924396994,-74.846542,50.364975,-12.074662,-3.176581,2.613042,1.250604,61.284145,37.457901,-41.591118
447,1924413661,-74.383057,49.876385,-13.063747,-3.331316,2.405548,1.340075,74.747520,27.990620,-38.373817
448,1924430328,-73.392914,49.418446,-13.751105,-3.430565,2.435040,1.625731,92.225273,17.115360,-33.848022
449,1924446995,-71.909859,48.947063,-14.196309,-3.821250,2.867418,1.640567,110.579391,7.319064,-32.270111
450,1924463662,-70.128624,48.397652,-14.483179,-4.126549,3.005577,1.363032,121.172295,-0.883252,-34.967861
451,1924480329,-68.178391,47.768810,-14.648170,-4.022514,2.625927,1.377673,125.744072,-8.158565,-37.742214
452,1924496996,-66.090401,47.063652,-14.735814,-3.941229,2.292569,1.545750,130.511566,-14.074719,-40.526878
453,1924513663,-63.950172,46.272297,-14.815825,-3.715422,1.983130,1.361282,133.258408,-17.989672,-44.616745
454,1924530330,-61.785545,45.413609,-14.908795,-3.292851,1.525070,0.912207,135.227951,-20.970924,-47.836842
455,1924546997,-59.589622,44.505657,-14.979267,-3.131817,0.948746,0.953655,136.085922,-25.005718,-49.199837
456,1924563664,-57.313778,43.536827,-14.978130,-2.896369,0.217429,1.397202,137.845520,-31.414814,-49.763439
457,1924580331,-55.012604,42.531769,-14.941418,-2.236103,-0.099552,2.066854,137.905441,-35.892048,-49.456249
458,1924596998,-52.890144,41.589691,-14.928437,-1.400155,0.413752,2.861969,128.172516,-34.718193,-45.634560
459,1924613665,-51.068424,40.745453,-15.038793,-1.382403,0.979468,3.369571,115.005196,-28.273304,-43.251431
460,1924630332,-49.671673,39.902763,-15.342608,-2.015643,1.051925,1.076923,96.939705,-22.554604,-48.088245
461,1924646999,-48.589767,39.021317,-15.755960,-1.969099,-1.031943,-0.109650,82.016663,-21.143694,-52.815002
462,1924663666,-47.386673,38.049110,-16.206110,-2.484568,-2.073515,-0.243959,90.357224,-24.377899,-57.775124
463,1924680333,-46.036144,37.015373,-16.752453,-1.946203,-1.371696,0.063471,102.356476,-24.659002,-63.266109
464,1924697000,-44.710056,35.934196,-17.469694,-1.967125,-0.386807,0.410707,106.511734,-22.011608,-70.770935
465,1924713667,-43.589451,34.787292,-18.379107,-1.416480,-0.467706,0.524347,100.180206,-19.466114,-80.153481
466,1924730334,-42.647476,33.542877,-19.411015,-1.842132,-0.531871,-0.495237,92.659737,-20.580807,-88.719002
467,1924747001,-41.695538,32.163280,-20.549473,-1.397732,-1.549930,-0.908991,95.549026,-23.933628,-98.390930
468,1924763668,-40.400776,30.626467,-21.787374,-1.373980,-1.730753,-1.575757,117.764664,-29.026651,-108.655678
469,1924780335,-38.802364,28.940929,-23.195858,-0.837331,-1.226226,-2.360345,139.276535,-32.301815,-121.261215
470,1924797002,-37.050117,27.120836,-24.791517,0.107060,-0.789925,-2.594711,151.528152,-35.340164,-134.059677
471,1924813669,-35.287102,25.251873,-26.511644,1.234757,-0.837454,-1.755973,152.734680,-37.013020,-141.214951
472,1924830336,-33.687733,23.374325,-28.284042,0.938655,-1.297192,-0.654194,141.159851,-39.123692,-143.919174
473,1924847003,-32.518620,21.617260,-30.217836,1.051184,-1.570199,-0.432937,115.967049,-30.905602,-147.614639
474,1924863670,-31.748892,19.882959,-32.289597,0.671355,-1.122207,-0.187856,91.661896,-27.422918,-154.006058
475,1924880337,-31.247986,18.162971,-34.584965,1.656324,-0.006169,-1.043433,76.394043,-21.094103,-165.148697
476,1924897004,-30.958246,16.425831,-37.195694,2.458189,0.195386,-1.784775,65.405785,-13.097777,-182.110596
477,1924913671,-30.750004,14.682801,-40.065819,2.997071,-1.146380,-2.174728,60.121895,-5.802958,-196.250290
478,1924930338,-30.579529,13.040759,-43.017681,3.260664,-3.044784,-2.037756,54.112572,1.863634,-198.342789
479,1924947005,-30.428497,11.564352,-45.871983,3.262970,-4.174429,-1.935199,47.010849,7.540720,-189.308762
480,1924963672,-30.423084,10.281438,-48.462517,3.192281,-4.219561,-1.784917,31.243259,9.859269,-170.735336
481,1924980339,-30.552563,9.235336,-50.715889,3.373840,-2.999646,-1.028302,16.619158,12.481529,-146.811066
482,1924997006,-30.903683,8.509591,-52.496788,2.998214,-1.937862,-0.782190,-3.116466,15.497220,-113.133400
483,1925013673,-31.251596,8.189654,-53.458244,1.239901,-1.671151,-0.497818,-11.034097,12.020038,-58.920300
484,1925030340,-31.131266,8.123124,-53.535744,0.583093,-0.718397,-0.715359,9.341962,-2.026824,-6.123717
485,1925047007,-30.443329,8.090782,-53.002609,0.568379,-0.231846,-1.141135,38.227142,-18.866543,26.094378
486,1925063674,-29.364851,8.033115,-52.159874,0.854381,-0.430636,-1.215076,59.075981,-28.947294,41.557384
487,1925080341,-28.229879,8.012687,-51.241642,1.562876,-0.661358,-0.967777,61.865826,-28.338039,47.101635
488,1925097008,-27.342876,8.064715,-50.357010,1.947634,-0.408151,-0.830198,47.252243,-22.715038,47.838360
489,1925113675,-26.794516,8.163720,-49.554489,2.138139,0.027984,-0.797994,27.555267,-17.371414,45.039749
490,1925130342,-26.609674,8.327092,-48.725628,2.296908,0.391273,-0.768623,5.401722,-14.320907,48.264603
491,1925147009,-26.717133,8.614323,-47.742550,2.372615,0.236895,-0.823490,-13.701523,-11.734593,59.761589
492,1925163676,-27.053532,9.073261,-46.543865,2.544851,-0.225455,-0.786504,-29.812721,-8.525439,75.732368
493,1925180343,-27.584753,9.705134,-45.089802,2.465326,-0.861254,-0.677936,-44.683392,-6.760487,93.773476
494,1925197010,-28.203470,10.516177,-43.376797,2.519348,-1.748658,-0.685480,-53.744503,-5.260034,112.098343
495,1925213677,-28.881031,11.512763,-41.444092,3.035858,-2.294595,-0.990541,-61.383553,-2.776973,128.474640
496,1925230344,-29.658131,12.664409,-39.375389,3.424026,-2.362805,-0.851584,-71.190125,0.030808,139.583878
497,1925247011,-30.464590,13.890566,-37.283867,2.979949,-2.222901,-0.574065,-75.772079,1.604457,142.499634
498,1925263678,-31.346857,15.200068,-35.224567,2.422606,-2.139992,-0.846292,-82.523972,5.108374,142.928802
499,1925280345,-32.404678,16.596527,-33.205532,2.291722,-2.168641,-1.185904,-95.198593,8.764780,143.148056
500,1925297012,-33.636211,18.074110,-31.224384,2.324684,-2.151879,-1.643319,-107.844246,11.645841,143.435333
501,1925313679,-35.005989,19.608147,-29.271421,2.103466,-2.044465,-1.813432,-118.553085,12.635342,143.491257
502,1925330346,-36.444218,21.195169,-27.389730,1.672731,-1.961725,-1.512787,-124.159645,14.674573,141.516068
503,1925347013,-37.916718,22.813580,-25.594063,1.153468,-1.680119,-1.112609,-127.219734,16.150993,138.304764
504,1925363680,-39.385044,24.454834,-23.890741,0.878795,-1.500599,-0.884908,-127.557800,17.583933,134.665543
505,1925380347,-40.890739,26.094500,-22.262529,0.638680,-1.224875,-0.773726,-130.534210,17.405594,131.015564
506,1925397014,-42.430809,27.691586,-20.707945,0.124809,-1.010715,-0.525261,-133.065109,15.431255,125.914566
507,1925413681,-43.932877,29.233438,-19.247015,0.135940,-0.997344,-0.617511,-130.361938,13.850664,119.574036
508,1925430348,-45.366798,30.731152,-17.890862,0.354736,-0.853731,-0.730922,-125.155319,13.512983,113.377716
509,1925447015,-46.731487,32.148327,-16.612963,0.348997,-0.384055,-0.517177,-120.327675,11.021687,106.709846
510,1925463682,-48.010056,33.451984,-15.382370,-0.028954,-0.365341,-0.214245,-115.162018,6.404397,99.677704
511,1925480349,-49.117413,34.626438,-14.218475,-0.250641,-0.861098,-0.142428,-103.981400,2.332188,91.223015
512,1925497016,-50.058178,35.649467,-13.165160,-0.494628,-1.426813,-0.702048,-91.265594,-0.488870,80.341919
513,1925513683,-50.679615,36.457504,-12.154950,-0.449531,-1.729978,-0.359995,-71.397835,-7.758152,68.697289
514,1925530350,-50.924953,37.076778,-11.179585,-0.714991,-1.241758,-0.036870,-48.181145,-13.802679,58.527885
515,1925547017,-50.957104,37.492687,-10.290604,-0.635540,0.035577,0.396925,-32.665962,-18.192200,46.222744
516,1925563684,-51.086063,37.810375,-9.574019,-0.827430,0.668901,0.819277,-32.425053,-15.442781,36.331612
517,1925580351,-51.446659,38.066010,-9.080223,-1.200728,0.809279,0.808576,-38.278778,-9.607297,26.679596
518,1925597018,-52.089474,38.284878,-8.875569,-1.785165,0.854420,0.630388,-44.588047,-0.439697,16.377371
519,1925613685,-52.985020,38.459667,-8.936666,-2.261170,1.472157,0.961530,-49.888939,7.670530,6.653389
520,1925630352,-54.112091,38.635662,-9.283729,-2.586870,2.041448,1.188165,-53.089264,18.372749,-1.116867
521,1925647019,-55.606323,38.853054,-9.967710,-3.009484,2.752140,0.906726,-62.417820,32.675476,-7.708496
522,1925663686,-57.538845,39.108250,-11.016850,-3.498832,3.101422,1.105818,-74.807976,48.263206,-14.148656
523,1925680353,-59.498646,39.344238,-12.237510,-3.584187,3.860102,2.029181,-69.742828,54.759315,-17.543322
524,1925697020,-60.987217,39.558929,-13.391109,-3.696829,4.733151,2.957886,-43.818718,51.769348,-15.360784
525,1925713687,-61.914745,39.734589,-14.361341,-4.103261,6.389155,3.002947,-17.011406,43.389099,-12.206358
526,1925730354,-62.301689,39.850891,-15.062321,-4.600225,7.480076,2.494977,5.174738,30.808676,-9.027075
527,1925747021,-62.012680,39.922291,-15.263786,-4.987040,7.623821,1.867334,26.541801,9.191456,-0.660220
528,1925763688,-61.023724,39.922375,-14.899368,-5.451246,7.115329,1.342199,46.731400,-15.743356,7.844874
529,1925780355,-59.424599,39.793961,-14.079774,-5.645648,6.160386,0.695422,65.836014,-37.596004,11.862185
530,1925797022,-57.338993,39.527237,-12.934142,-5.378820,5.088295,0.277440,82.648300,-54.462463,13.879837
531,1925813689,-54.825245,39.121201,-11.540553,-4.895326,4.324822,0.332376,99.199928,-68.289902,15.609745
532,1925830356,-52.004299,38.587360,-9.991730,-4.542135,4.210195,0.347673,112.300644,-78.230843,17.121386
533,1925847023,-49.131638,37.923965,-8.481259,-4.316570,4.561337,0.170497,117.570915,-81.290100,14.142125
534,1925863690,-46.601425,37.111076,-7.165748,-4.353339,4.436290,-0.437585,105.054062,-80.197716,5.488353
535,1925880357,-44.675961,36.147087,-6.109269,-4.273418,3.621298,-0.521372,79.001854,-77.871040,-6.145126
536,1925897024,-43.256142,35.067459,-5.331798,-3.936992,2.578602,-0.451774,59.304424,-74.029831,-18.053551
537,1925913691,-42.174706,33.929752,-4.816953,-3.451811,1.663725,0.009257,48.654083,-68.515228,-27.993753
538,1925930358,-41.362621,32.763603,-4.539281,-3.212119,1.203499,0.679861,40.823711,-62.560600,-36.629986
539,1925947025,-40.766483,31.560997,-4.473394,-3.020996,0.563129,0.973322,34.914970,-57.721703,-45.288567
540,1925963692,-40.266781,30.296595,-4.584728,-2.824408,-0.091735,0.452232,34.662334,-55.084953,-54.058578
541,1925980359,-39.610817,28.903080,-4.810848,-2.492597,-1.021510,-0.341874,47.306740,-57.683777,-63.140503
542,1925997026,-38.558228,27.364647,-5.126415,-2.147713,-1.651113,-0.453293,73.330421,-62.296299,-71.570557
543,1926013693,-37.020504,25.758434,-5.609538,-1.805195,-1.146626,0.299833,106.478104,-61.466026,-79.953995
544,1926030360,-35.388123,24.220572,-6.324900,-1.497673,0.487656,0.751416,117.333374,-52.690216,-86.298195
545,1926047027,-33.984589,22.692390,-7.287999,-1.310576,0.431225,0.450933,108.476067,-46.455051,-96.170929
546,1926063694,-32.614468,21.071693,-8.468728,-0.545341,-0.506467,-0.791063,109.871559,-46.430584,-108.724098
547,1926080361,-31.039675,19.344755,-9.790709,0.151541,-1.290846,-0.942913,123.156143,-50.038734,-118.272171
548,1926097028,-29.456141,17.544079,-11.227091,0.596784,-0.624341,-0.586868,123.557343,-53.419598,-125.413834
549,1926113695,-28.221300,15.748326,-12.795097,1.574230,-0.550229,0.453962,102.335083,-52.175896,-131.288101
550,1926130362,-27.363747,14.029371,-14.415050,2.112394,-1.310953,1.087839,77.730904,-48.718807,-131.515900
551,1926147029,-26.714222,12.374583,-16.069960,2.526948,-1.578200,0.566090,62.969975,-45.756439,-131.557907
552,1926163696,-26.227320,10.786998,-17.793930,3.092860,-1.342141,-0.240377,51.315258,-41.362091,-133.463364
553,1926180363,-25.876133,9.286988,-19.665892,3.388891,-1.456190,-0.847743,41.994717,-33.530495,-139.167587
554,1926197030,-25.486746,7.838129,-21.684034,3.272959,-2.040322,-1.011551,42.752983,-27.680988,-145.851517
555,1926213697,-24.886824,6.438438,-23.763504,3.075137,-2.546552,-0.840017,52.873051,-24.521915,-148.024826
556,1926230364,-24.018162,5.107432,-25.882137,2.947802,-2.586720,-0.316972,66.290459,-21.540262,-148.422501
557,1926247031,-22.901045,3.866678,-28.058825,3.210406,-2.241041,-0.373476,78.640373,-17.635572,-149.299881
558,1926263698,-21.595303,2.723672,-30.295605,3.649866,-1.941261,-0.708938,87.463280,-13.908404,-150.173798
559,1926280365,-20.127367,1.654911,-32.528702,3.888727,-2.157620,-0.847347,94.604469,-13.382233,-148.149231
560,1926297032,-18.538298,0.682662,-34.586349,3.567567,-2.279605,-0.737598,99.278587,-15.303886,-135.969818
561,1926313699,-16.922901,-0.132459,-36.322193,3.240790,-2.090671,-0.682852,98.847343,-15.970675,-114.270195
562,1926330366,-15.461506,-0.645145,-37.528454,3.250017,-1.279216,-0.487795,88.623940,-10.447659,-78.244316
563,1926347033,-14.270821,-0.816395,-38.050610,3.247634,0.317630,-0.910005,72.474731,-2.967861,-33.071819
564,1926363700,-13.312406,-0.853630,-37.926571,2.817082,1.424122,-1.214881,59.038742,-5.005975,6.542058
565,1926380367,-12.403581,-0.921860,-37.357708,2.547403,1.331521,-1.270623,56.473072,-12.640382,32.210800
566,1926397034,-11.704889,-0.938174,-36.505440,3.133453,1.292620,-0.692727,44.157177,-12.682294,49.647717
567,1926413701,-11.723060,-0.803596,-35.456963,3.141742,1.202613,0.265084,1.263422,-5.902671,63.082207
568,1926430368,-12.702664,-0.470565,-34.220917,3.270422,1.150512,0.501834,-56.558754,2.812306,76.559296
569,1926447035,-14.610053,0.122855,-32.842236,3.822455,1.119386,0.016807,-112.801384,14.046988,88.650467
570,1926463702,-17.288622,0.979813,-31.337276,4.033028,0.714750,-0.952524,-160.192657,23.618813,100.807747
571,1926480369,-20.380566,1.993216,-29.712757,3.441733,-0.671002,-1.375172,-186.654572,25.093231,111.728409
572,1926497036,-23.415094,3.093810,-27.956738,2.695317,-2.047890,-1.377563,-185.352066,21.028477,122.169724
573,1926513703,-26.046986,4.262851,-26.112150,2.296837,-2.618911,-0.946095,-163.612778,16.525322,129.541275
574,1926530370,-28.052885,5.517734,-24.272663,2.331347,-2.834517,-0.718772,-128.356308,16.076599,132.064636
575,1926547037,-29.508146,6.890035,-22.383930,2.795098,-2.753417,-0.860734,-98.147842,16.961512,138.270950
576,1926563704,-30.634853,8.397817,-20.396772,3.215651,-2.626030,-0.951058,-82.040199,18.119091,147.483795
577,1926580371,-31.518284,10.006052,-18.332996,3.113621,-2.557333,-0.697646,-71.378601,18.593594,154.398987
578,1926597038,-32.311443,11.680422,-16.222553,2.802246,-2.206625,-0.424441,-69.972282,18.577465,158.579880
579,1926613705,-33.146233,13.411367,-14.088526,2.407485,-2.139681,0.041870,-76.453239,18.846817,161.198715
580,1926630372,-34.152699,15.224592,-12.009300,2.496251,-1.598318,-0.330675,-89.781624,22.635851,160.822891
581,1926647039,-35.504059,17.141043,-10.050264,2.740915,-0.770716,-0.957896,-112.372940,28.970713,158.256653
582,1926663706,-37.238178,19.129107,-8.205846,1.935748,-0.764955,-0.757582,-137.016510,32.733807,155.348114
583,1926680373,-39.226425,21.140804,-6.459742,0.848372,-1.176123,-0.446548,-153.876907,32.992649,151.896698
584,1926697040,-41.333172,23.161705,-4.868862,0.476634,-1.077413,-0.585688,-160.909363,34.392529,145.779358
585,1926713707,-43.485474,25.164639,-3.474528,0.331353,-0.762238,-0.806273,-161.892960,36.294811,137.350143
586,1926730374,-45.630737,27.123775,-2.255483,-0.015818,-0.696499,-0.939786,-159.454956,36.726074,129.200317
587,1926747041,-47.676872,28.996902,-1.179055,-0.353799,-0.901303,-0.921128,-151.659836,34.726440,120.790298
588,1926763708,-49.532253,30.773062,-0.250001,-0.683188,-1.019005,-0.665478,-137.609283,33.235504,111.837952
589,1926780375,-51.055359,32.412598,0.442631,-0.996143,-1.174633,-0.529101,-111.675308,34.626842,98.226234
590,1926797042,-52.260433,33.914833,0.951746,-0.974148,-1.060476,-0.554790,-87.529282,34.868660,86.483055
591,1926813709,-53.089157,35.227303,1.353309,-0.830020,-1.145334,-0.461878,-61.915043,30.971872,74.573044
592,1926830376,-53.518154,36.353035,1.756182,-0.634279,-0.873183,-0.037558,-38.399883,23.635769,65.795502
593,1926847043,-53.592972,37.339630,2.155483,-0.699196,-0.321289,0.629660,-17.377625,18.735508,58.923477
594,1926863710,-53.413986,38.240585,2.506690,-0.873955,0.053302,1.182980,-0.699683,17.752813,53.274357
595,1926880377,-53.167957,39.074806,2.744478,-1.074644,0.556757,0.819013,7.323065,19.974676,46.696125
596,1926897044,-53.100037,39.842403,2.780526,-1.314019,0.649120,0.257992,4.171820,25.282049,37.753475
597,1926913711,-53.285824,40.527302,2.614189,-1.419105,0.593087,0.007567,-3.238681,29.709944,28.235077
598,1926930378,-53.723335,41.129227,2.276056,-1.537363,0.801679,0.293660,-11.519032,32.804142,19.799721
599,1926947045,-54.435707,41.703667,1.724766,-1.591793,1.540887,0.404914,-19.395950,39.290127,13.251001
600,1926963712,-55.580105,42.283009,0.936658,-1.768251,1.708720,0.317856,-35.567387,47.706882,8.209993
601,1926980379,-57.166599,42.853149,-0.109857,-1.762049,1.010357,0.130248,-51.251911,56.430481,2.756707
602,1926997046,-59.055988,43.368065,-1.371604,-1.995595,0.585908,0.229790,-60.163879,62.230503,-3.089614
603,1927013713,-61.125988,43.803314,-2.782667,-2.580099,0.734962,0.550220,-64.371262,65.158356,-8.068945
604,1927030380,-63.241302,44.175247,-4.263190,-2.884597,1.167612,1.011024,-63.766148,65.917404,-10.219326
605,1927047047,-65.333488,44.564083,-5.767129,-3.281560,1.923921,1.167767,-60.974991,67.214325,-7.103455
606,1927063714,-67.299492,45.024570,-7.214081,-3.541049,2.368158,1.351585,-55.339615,66.492111,0.409680
607,1927080381,-68.957207,45.562340,-8.465947,-4.149212,2.523629,1.437589,-44.631763,60.031967,10.107877
608,1927097048,-70.033264,46.181309,-9.355979,-4.654073,2.360800,1.510787,-24.785154,46.811077,21.601068
609,1927113715,-70.316856,46.859951,-9.737584,-5.132227,2.426316,1.554274,1.036956,27.604809,32.793949
610,1927130382,-69.878014,47.550400,-9.595097,-5.495924,2.901519,1.587064,21.497631,7.615861,40.754189
611,1927147049,-68.878555,48.218410,-8.977824,-5.648092,3.022021,2.088594,33.928112,-10.155416,46.074375
612,1927163716,-67.341339,48.798431,-7.973178,-5.349154,2.351218,2.532267,48.514229,-25.107191,46.985786
613,1927180383,-65.220627,49.251484,-6.573929,-4.729831,1.428781,3.040881,65.285912,-40.495102,46.827877
614,1927197050,-62.489975,49.567333,-4.840597,-4.059832,0.733878,3.302137,86.286911,-53.425476,46.622078
615,1927213717,-59.369419,49.718956,-2.839559,-4.097498,1.183182,3.083401,97.160896,-64.568657,45.516571
616,1927230384,-56.324852,49.639450,-0.736889,-4.583763,1.492044,2.454072,87.900406,-72.689476,39.191147
617,1927247051,-53.653034,49.292957,1.315555,-4.301353,1.013488,2.224763,68.135391,-78.513245,28.673510
618,1927263718,-51.158737,48.649452,3.248783,-3.643290,-0.010157,2.256955,63.565376,-84.928566,15.641584
619,1927280385,-48.791908,47.734772,4.930265,-3.016069,-0.179879,1.812464,68.217262,-87.844505,1.010497
620,1927297052,-46.522232,46.548920,6.247701,-2.627427,-0.366773,1.159325,79.645775,-88.715446,-16.591869
621,1927313719,-44.289097,45.139370,7.192898,-2.069328,-1.014378,1.019853,94.707451,-88.565971,-32.705482
622,1927330386,-42.108009,43.516090,7.815650,-2.131016,-1.765460,0.698665,106.162079,-90.360573,-47.403137
623,1927347053,-40.041412,41.692505,8.170158,-1.783820,-2.081795,-0.063870,111.003716,-93.838615,-60.303223
624,1927363720,-37.918148,39.658531,8.304346,-1.397460,-2.157837,-0.749498,123.552155,-99.784546,-72.234108
625,1927380387,-35.645683,37.432472,8.207919,-1.125527,-1.553894,-1.365011,141.353546,-105.347977,-83.807190
626,1927397054,-33.461208,35.050747,7.858964,-1.258404,-1.112129,-1.315907,144.851044,-109.202095,-95.168587
627,1927413721,-31.452396,32.546814,7.247993,-1.080090,-1.241733,-1.059644,142.324905,-111.508507,-106.534317
628,1927430388,-29.437408,29.950872,6.434982,-0.657111,-1.703419,-1.037547,147.611374,-114.238518,-115.077965
629,1927447055,-27.352623,27.269051,5.394592,-0.594197,-1.350877,-1.537005,156.382217,-116.582588,-124.926674
630,1927463722,-25.249401,24.557970,4.058705,-0.210079,-0.875829,-1.822352,162.629135,-114.972809,-136.902542
631,1927480389,-23.099524,21.852051,2.433066,0.023642,-0.586904,-2.005320,168.833023,-112.493660,-148.465820
632,1927497056,-20.990141,19.218958,0.480972,0.470836,-0.648416,-2.245914,169.057449,-106.353340,-161.149231
633,1927513723,-18.985394,16.713953,-1.750339,1.330080,-1.135317,-2.393310,162.992050,-98.797646,-171.234863
634,1927530390,-17.068022,14.405892,-4.253518,1.842090,-1.470446,-2.151580,156.747208,-87.985245,-180.614456
635,1927547057,-15.295379,12.391265,-7.103965,2.448864,-0.803202,-2.105139,147.412354,-70.789818,-193.637375
636,1927563724,-13.883277,10.681573,-10.273155,3.460536,-0.290183,-1.758928,124.185532,-53.403057,-206.303238
637,1927580391,-12.890645,9.330570,-13.600094,4.829065,-0.600653,-1.234739,95.682877,-34.399059,-210.156219
638,1927597058,-12.338018,8.473639,-16.842478,6.279130,-0.545013,-1.249127,64.717735,-9.253480,-198.944260
639,1927613725,-12.362885,8.102522,-19.756752,6.499479,0.446667,-1.447027,25.176525,14.202470,-173.920654
640,1927630392,-13.009401,8.011289,-22.170355,5.474801,1.238139,-1.462340,-17.026192,25.101234,-141.226990
641,1927647059,-13.990794,8.050692,-23.861874,4.143496,1.238241,-1.013230,-43.240643,24.719442,-97.309502
642,1927663726,-15.054350,8.202641,-24.695112,3.228903,1.537694,-0.659657,-55.289791,20.201225,-45.764359
643,1927680393,-16.081142,8.387465,-24.751310,2.438769,1.864064,-0.870963,-59.669277,10.547542,-0.379790
644,1927697060,-16.865711,8.499204,-24.275572,1.993662,1.325312,-1.220482,-49.817474,-2.605636,28.835491
645,1927713727,-17.442490,8.621951,-23.537781,2.331924,0.869658,-1.040968,-39.750874,-6.898994,43.855904
646,1927730394,-18.072216,8.884178,-22.715342,2.666075,0.423028,-0.470206,-43.849693,-0.914055,51.106575
647,1927747061,-18.967575,9.387030,-21.828350,3.041859,0.771798,-0.421724,-60.728531,10.900323,59.261612
648,1927763728,-20.266958,10.146564,-20.867546,3.241617,1.591837,-0.787641,-86.301193,22.835413,68.678635
649,1927780395,-21.898458,11.157380,-19.798563,3.316292,1.452375,-1.528550,-108.303833,32.903366,80.491844
650,1927797062,-23.680880,12.315768,-18.578739,3.239169,0.343585,-1.831737,-120.393066,35.310509,92.854240
651,1927813729,-25.461388,13.579165,-17.198669,3.437577,-0.687863,-1.505825,-123.941490,34.379616,104.776054
652,1927830396,-27.347963,14.992970,-15.751704,3.802835,-0.907383,-1.318396,-133.173508,37.565586,112.944962
653,1927847063,-29.515696,16.575148,-14.276162,3.784853,-0.696100,-1.836201,-152.696213,41.923073,119.993614
654,1927863730,-31.888189,18.209141,-12.682138,3.468226,-1.170442,-2.076689,-169.487259,36.704205,128.420181
655,1927880397,-34.235462,19.836874,-10.994372,2.941290,-1.661363,-1.739522,-172.385193,28.638121,133.394958
656,1927897064,-36.527172,21.482466,-9.411477,2.280567,-2.134860,-1.260620,-169.556213,28.058662,129.516586
657,1927913731,-38.882679,23.200369,-8.004360,1.695864,-2.591060,-1.345711,-171.960052,32.809750,124.715324
658,1927930398,-41.258011,24.938700,-6.697950,1.535676,-2.534549,-1.460974,-173.024368,32.762405,121.808846
659,1927947065,-43.482834,26.653086,-5.392550,1.766889,-2.146579,-1.499809,-166.103958,27.488079,121.324486
660,1927963732,-45.568981,28.434090,-4.138571,2.122671,-1.816384,-1.261203,-158.492004,28.415871,122.405846
661,1927980399,-47.649315,30.318108,-3.036869,1.932281,-1.550345,-0.977667,-155.770782,34.810604,121.627815
662,1927997066,-49.801914,32.283676,-2.134602,1.033224,-1.630563,-1.009950,-155.803635,42.047943,119.064392
663,1928013733,-52.014442,34.257202,-1.391963,0.622642,-2.334409,-1.247098,-155.719330,44.760422,115.317429
664,1928030400,-54.124573,36.198978,-0.765680,1.432300,-2.584518,-1.485456,-146.799469,44.476170,111.494942
665,1928047067,-55.970745,38.176777,-0.270773,2.299084,-2.366857,-1.457931,-127.232521,47.599861,110.740463
666,1928063734,-57.551872,40.235554,0.017697,3.052759,-2.169441,-0.995864,-104.328064,55.488415,110.595856
667,1928080401,-58.971397,42.364849,0.036278,2.837218,-1.923240,-0.726592,-84.416489,65.495621,109.022202
668,1928097068,-60.299519,44.489120,-0.195870,2.314979,-1.801360,-0.707822,-68.626259,72.150475,104.795654
669,1928113735,-61.471375,46.495747,-0.727134,1.873961,-1.694386,-0.335481,-46.097569,77.092239,94.251030
670,1928130402,-62.497543,48.300312,-1.579980,0.983556,-1.600842,-0.009822,-22.420074,80.424637,79.256798
671,1928147069,-63.538990,49.840649,-2.744450,0.220641,-1.265850,0.463155,-8.219446,81.706375,61.535667
672,1928163736,-64.754257,51.053673,-4.211426,-0.582675,-0.722426,0.916167,-3.569643,81.160530,40.996399
673,1928180403,-66.214310,51.887150,-5.943064,-1.234547,-0.294629,1.504658,-4.848826,78.615089,18.590757
674,1928197070,-67.884087,52.352718,-7.840898,-2.280604,0.109315,2.212665,-8.837503,74.252075,-1.596689
675,1928213737,-69.580833,52.410660,-9.793865,-3.231185,0.506788,2.708857,-7.515746,66.890762,-22.759441
676,1928230404,-71.154083,52.060669,-11.696854,-4.329876,1.423545,2.867203,-2.661234,57.779339,-43.331108
677,1928247071,-72.548256,51.365017,-13.411535,-4.957599,2.255357,3.356556,-1.427719,46.548019,-59.582970
678,1928263738,-73.579163,50.441109,-14.803162,-5.357923,3.260244,3.911443,4.411577,33.200901,-68.444458
679,1928280405,-74.206200,49.437824,-15.781829,-5.670175,3.992490,3.204403,8.782248,18.584723,-68.404388
680,1928297072,-74.651047,48.430214,-16.370581,-5.732839,4.081131,2.020237,1.401067,5.102580,-64.566589
681,1928313739,-74.856873,47.506058,-16.640804,-6.046589,3.819141,1.409537,1.146303,-5.130794,-56.465351
682,1928330406,-74.685257,46.814507,-16.542223,-6.498693,4.058583,0.677426,7.409846,-15.803048,-39.104057
683,1928347073,-74.294861,46.410583,-16.127920,-7.105321,4.032049,-0.072795,6.806720,-23.956024,-18.925825
684,1928363740,-73.806564,46.264614,-15.443970,-6.921978,3.070537,-0.287023,1.055791,-30.671705,-0.788477
685,1928380407,-72.960121,46.362072,-14.417303,-6.063198,2.307788,0.119824,7.686354,-40.123287,17.604555
686,1928397074,-71.514717,46.666904,-12.987589,-5.526493,2.125531,0.843410,25.928274,-51.664181,35.247501
687,1928413741,-69.408783,47.091148,-11.103281,-5.083191,2.477168,1.454759,45.265953,-65.344955,49.642185
688,1928430408,-66.730385,47.510712,-8.846114,-4.857566,2.974703,1.900193,62.600052,-76.823822,57.453209
689,1928447075,-63.698490,47.825539,-6.370761,-4.757155,3.174545,2.389542,73.532928,-83.920517,58.868679
690,1928463742,-60.468861,47.931656,-3.844403,-4.681331,2.678726,2.508200,82.756088,-87.887299,53.008587
691,1928480409,-57.089481,47.744102,-1.345509,-4.746148,1.559253,2.160261,93.028709,-92.933006,42.321384
692,1928497076,-53.626053,47.222282,1.015902,-4.183235,0.709901,2.017219,104.773880,-97.613365,28.444916
693,1928513743,-50.201488,46.438301,3.109294,-3.461298,0.397867,2.341383,115.264648,-97.698547,15.755569
694,1928530410,-47.066341,45.452835,4.845736,-3.223781,0.729607,2.572786,114.626396,-94.500938,3.269120
695,1928547077,-44.422245,44.262459,6.166563,-3.212311,0.381917,1.727544,104.140305,-91.138878,-12.187173
696,1928563744,-42.212971,42.834240,7.122335,-2.267869,-0.799292,0.791540,94.438011,-91.930168,-28.787485
697,1928580411,-40.351231,41.193295,7.713221,-1.608078,-1.762156,0.306449,89.366562,-92.440010,-45.403419
698,1928597078,-38.902195,39.359379,7.943373,-0.840415,-1.514699,0.052278,79.407143,-92.551704,-62.301182
699,1928613745,-37.732452,37.371269,7.877238,-0.052759,-1.778159,0.756897,74.043564,-92.747643,-76.637543
700,1928630412,-36.608097,35.286282,7.515939,0.380402,-1.911819,0.835902,81.698746,-90.223930,-89.731010
701,1928647079,-35.427544,33.061260,6.880217,0.268083,-1.246540,-0.975360,93.653732,-90.519920,-104.253700
702,1928663746,-34.180618,30.682030,6.029248,1.323690,-1.548985,-2.220173,103.171402,-93.565483,-117.306328
703,1928680413,-32.583710,28.153385,5.072966,1.562604,-2.632110,-2.035315,125.392387,-100.289223,-125.431046
704,1928697080,-30.546621,25.466490,4.003825,1.213395,-2.966481,-1.669212,152.552322,-108.495354,-133.390808
705,1928713747,-28.091286,22.675489,2.721443,1.511252,-2.611246,-1.059885,180.092316,-112.721375,-143.462982
706,1928730414,-25.376274,19.936844,1.108008,2.224223,-1.870577,-0.895521,199.466156,-107.294724,-154.673325
707,1928747081,-22.605312,17.329634,-0.922697,2.578494,-1.192493,-1.520692,206.584946,-97.076805,-169.294586
708,1928763748,-19.837746,14.879807,-3.404111,3.532691,-0.846649,-2.104846,208.748550,-86.340073,-186.743637
709,1928780415,-17.149040,12.671932,-6.228340,5.197894,-0.403246,-2.372431,203.072815,-74.512421,-198.288147
710,1928797082,-14.773244,10.930718,-9.283837,7.508141,-0.186159,-1.863040,181.453598,-52.169666,-201.440414
711,1928813749,-13.051832,9.831110,-12.333169,8.899796,-0.269951,-1.539442,137.683884,-21.831858,-190.716385
712,1928830416,-12.211249,9.292207,-15.115934,8.938158,0.441257,-1.685982,79.616508,3.398098,-167.873657
713,1928847083,-12.423180,9.145486,-17.463360,7.888434,2.130657,-1.184361,11.305462,20.015953,-137.848389
714,1928863750,-13.647524,9.243733,-19.334938,6.046303,3.235100,-0.967134,-54.063408,29.716740,-106.803780
715,1928880417,-15.890611,9.440700,-20.614248,4.813775,4.162645,-0.948586,-120.679565,29.719276,-70.370483
716,1928897084,-18.924742,9.743942,-21.221802,3.720536,4.189275,-1.240667,-174.541763,27.106194,-28.996735
717,1928913751,-22.247292,10.136203,-21.251093,2.866265,3.476162,-1.848525,-197.629456,21.639456,6.514737
718,1928930418,-25.429962,10.608771,-20.778259,2.140917,1.862263,-2.423343,-194.653839,13.661863,36.839111
719,1928947085,-28.168987,11.238564,-19.869505,2.219239,0.136765,-2.376861,-173.264023,8.594298,64.687386
720,1928963752,-30.350674,12.095660,-18.608086,2.750906,-0.897199,-2.247727,-144.794296,7.643825,89.665260
721,1928980419,-31.945847,13.160627,-17.020205,3.176767,-1.519993,-1.916427,-115.124550,5.612441,112.480370
722,1928997086,-32.946529,14.326740,-15.219116,3.130846,-1.735143,-1.352655,-84.301041,1.745576,125.989983
723,1929013753,-33.465553,15.567982,-13.296063,3.192269,-1.237444,-1.376283,-59.486671,0.286890,133.931717
724,1929030420,-33.841270,16.851341,-11.348619,3.198267,-0.541372,-1.520168,-53.745239,0.946941,135.948776
725,1929047087,-34.292381,18.117647,-9.339951,2.593064,-0.429313,-1.531128,-61.857334,-2.415049,137.666763
726,1929063754,-34.840923,19.360531,-7.324999,2.305255,-0.322368,-1.841187,-70.325294,-4.503279,136.471725
727,1929080421,-35.576374,20.602531,-5.344860,2.377108,0.055332,-2.051114,-83.296364,-4.440416,134.085068
728,1929097088,-36.585907,21.859612,-3.410821,1.916835,-0.102318,-1.641730,-101.161568,-3.694197,131.736755
729,1929113755,-37.805878,23.110590,-1.555493,1.256957,-0.305346,-1.211078,-114.330780,-3.334938,127.211548
730,1929130422,-39.136082,24.324818,0.213422,0.813603,-0.593453,-0.922746,-121.058846,-4.353444,121.309708
731,1929147089,-40.508568,25.494673,1.936249,0.685024,-0.812336,-0.814623,-124.442276,-7.076274,116.874466
732,1929163756,-41.921513,26.662399,3.612964,1.087793,-0.530254,-0.816046,-127.550232,-7.775218,114.055206
733,1929180423,-43.403774,27.865240,5.197764,0.927053,0.054987,-0.726244,-131.039597,-5.156219,110.992035
734,1929197090,-44.917480,29.055061,6.728044,0.235721,-0.407429,-0.273120,-133.118408,-5.964291,107.570602
735,1929213757,-46.413033,30.212212,8.236437,0.006002,-0.681436,0.116920,-133.021149,-8.695790,104.571648
736,1929230424,-47.859352,31.367767,9.666062,0.240058,-0.614442,-0.044945,-129.224442,-7.798847,100.882240
737,1929247091,-49.305191,32.579750,10.981919,0.782072,-0.631535,-0.149200,-127.093292,-3.075367,98.780510
738,1929263758,-50.751286,33.884705,12.218667,1.074399,-0.494836,0.140249,-125.960464,1.774513,99.820007
739,1929280425,-52.243229,35.292686,13.346828,0.794231,-0.096690,-0.059649,-126.468918,8.022441,100.752823
740,1929297092,-53.792801,36.757767,14.321810,0.631854,-0.421474,-0.367764,-125.906288,14.121941,98.634956
741,1929313759,-55.301998,38.225700,15.147517,0.683431,-0.787898,-0.247365,-119.224777,18.101643,94.501808
742,1929330426,-56.551167,39.610970,15.872694,0.501331,-0.818609,0.406796,-100.806694,17.551413,87.772255
743,1929347093,-57.506916,40.935478,16.526991,0.432941,-0.393587,0.954869,-81.241219,17.145964,82.931648
744,1929363760,-58.258911,42.185806,17.070328,0.025806,-0.105701,1.217309,-65.268425,18.244669,76.469536
745,1929380427,-58.981518,43.369926,17.477150,-0.351185,0.061686,1.214133,-58.456974,20.716299,69.947052
746,1929397094,-59.575760,44.477242,17.825483,-0.463149,-0.037832,1.465144,-48.673569,20.017038,64.767502
747,1929413761,-59.956139,45.518810,18.097836,-0.883731,-0.114665,1.407672,-32.897297,20.499855,59.772057
748,1929430428,-60.360069,46.476673,18.189737,-1.933395,0.416430,0.963593,-26.727137,24.287066,51.717808
749,1929447095,-61.023720,47.327209,18.030357,-2.735489,0.630267,0.774801,-31.357098,29.690300,41.255077
750,1929463762,-61.950691,48.041515,17.591696,-3.299495,1.187241,0.853230,-34.686451,35.037624,29.151863
751,1929480429,-63.238407,48.662872,16.849585,-4.089129,1.719551,0.452152,-42.524925,42.435341,19.418829
752,1929497096,-65.088203,49.183796,15.723584,-4.924107,2.156614,-0.058861,-58.596706,52.581154,8.716943
753,1929513763,-67.524055,49.541199,14.186677,-5.332903,2.273702,-0.665635,-74.715050,62.619450,-4.576311
754,1929530430,-70.404915,49.675129,12.369984,-5.193759,2.181353,-0.646508,-88.380524,67.819481,-17.946985
755,1929547097,-73.580925,49.594887,10.459573,-4.462942,2.975313,-0.068769,-101.780411,68.120819,-27.632179
756,1929563764,-76.801247,49.376823,8.549645,-4.064469,3.237982,0.674037,-104.655914,67.644318,-31.791550
757,1929580431,-79.599548,49.090988,6.828481,-3.429358,2.738414,1.440535,-88.256027,61.519672,-30.703016
758,1929597098,-81.561096,48.781933,5.391651,-2.785936,1.244005,2.000226,-51.267963,51.857998,-27.694645
759,1929613765,-82.588516,48.493290,4.462373,-3.495346,0.942536,2.123481,-18.384935,33.130222,-22.373947
760,1929630432,-82.828300,48.277729,4.077569,-3.704237,0.808134,2.326773,4.285837,12.595723,-14.925603
761,1929647099,-82.358620,48.170223,4.256335,-3.870978,0.867682,2.613873,21.586176,-8.890403,-5.637264
762,1929663766,-81.245682,48.141762,4.959298,-4.368538,1.399338,2.520658,36.759266,-29.064648,2.150081
763,1929680433,-79.677544,48.172058,6.119839,-5.052987,2.058115,2.034708,43.610424,-46.476009,9.304890
764,1929697100,-77.871109,48.195614,7.657862,-5.710911,2.090784,1.709970,41.001926,-61.039852,13.166077
765,1929713767,-76.004074,48.161797,9.436772,-5.713294,1.219023,1.584401,33.864388,-70.750328,13.895656
766,1929730434,-74.111969,48.027882,11.351751,-5.108976,-0.271483,1.892207,29.388105,-77.178925,11.795954
767,1929747101,-71.983063,47.784500,13.373842,-3.694236,-1.325426,2.366688,39.074661,-83.018486,9.505754
768,1929763768,-69.390816,47.433849,15.452483,-2.985186,-1.280302,2.964142,64.788773,-87.278404,7.705999
769,1929780435,-66.412384,46.945080,17.495058,-3.174951,-0.863897,3.114120,90.160744,-89.177155,3.906216
770,1929797102,-63.342255,46.342278,19.368921,-2.822894,-1.052278,2.213655,103.813103,-86.230133,-0.236753
771,1929813769,-60.267426,45.596527,21.015894,-1.602059,-2.157447,1.355960,114.794373,-82.671921,-7.251019
772,1929830436,-57.052433,44.725418,22.471272,-0.367959,-3.188150,1.231662,132.331741,-80.782265,-12.887630
773,1929847103,-53.505219,43.651306,23.831001,0.013733,-3.206239,1.693270,157.318390,-85.814186,-19.919741
774,1929863770,-49.921944,42.411636,24.949293,-0.400877,-1.878470,1.318663,170.561920,-85.622780,-28.265287
775,1929880437,-46.734421,41.087051,25.654152,-0.996130,-0.972747,0.167898,164.443222,-77.462425,-38.655090
776,1929897104,-44.021008,39.604435,25.982927,-0.817077,-1.083274,-0.948372,151.386490,-74.248749,-53.023682
777,1929913771,-41.588409,37.994228,26.000025,0.282678,-1.593430,-1.556447,146.668594,-72.494102,-65.331078
778,1929930438,-39.317726,36.260738,25.708876,0.300342,-1.413194,-1.604116,148.140060,-71.189613,-78.345947
779,1929947105,-37.331852,34.419064,25.104612,0.001865,-0.765129,-1.311477,141.480896,-69.435738,-91.984688
780,1929963772,-35.755821,32.515568,24.192932,0.273813,-0.040998,-0.913088,126.086182,-65.678543,-104.917519
781,1929980439,-34.491592,30.578720,23.037903,0.738328,-0.387820,-0.896790,113.473640,-62.168022,-115.410187
782,1929997106,-33.246677,28.573212,21.648237,1.016802,-1.412735,-1.372781,117.212402,-60.601009,-127.506996
783,1930013773,-31.884666,26.458763,20.022051,1.497821,-1.502949,-2.338764,128.168350,-61.443134,-141.453552
784,1930030440,-30.456333,24.251316,18.222111,1.873934,-1.048176,-2.601831,133.320450,-63.918228,-152.281784
785,1930047107,-29.065308,21.985144,16.266182,2.536201,-0.978248,-2.133947,130.921555,-65.564888,-161.412689
786,1930063774,-27.626286,19.735760,14.155583,3.204996,-0.606244,-1.871446,132.821564,-63.700626,-168.432312
787,1930080441,-26.202637,17.527567,11.844980,3.555151,0.243741,-2.245898,131.106003,-59.770229,-177.315704
788,1930097108,-24.996706,15.394043,9.327345,4.372717,0.695654,-2.819423,116.559464,-53.940514,-186.141479
789,1930113775,-24.031797,13.452995,6.670955,6.030873,0.899276,-2.737504,99.006821,-42.992218,-188.950027
790,1930130442,-23.249975,11.788404,4.000717,7.008465,1.008677,-2.245254,83.334488,-29.860870,-183.442673
791,1930147109,-22.672321,10.553094,1.478504,7.187317,1.315547,-1.750772,65.401123,-11.378221,-165.773422
792,1930163776,-22.388309,9.747372,-0.712324,6.478525,1.726646,-1.273728,41.634140,3.890913,-138.189804
793,1930180443,-22.439487,9.300493,-2.435243,5.237735,2.324611,-1.367027,15.461205,13.067642,-104.619781
794,1930197110,-22.951626,9.192267,-3.581298,4.118781,3.093845,-1.788753,-18.259279,19.188953,-65.257225
795,1930213777,-24.025349,9.353315,-4.093374,3.060981,3.706459,-1.816918,-58.061977,19.956125,-24.099691
796,1930230444,-25.509911,9.655722,-4.058959,2.298920,3.061074,-1.746315,-88.015152,14.639834,9.311806
797,1930247111,-27.177122,10.076518,-3.550877,2.446567,2.231621,-1.805166,-103.865463,8.324635,37.980312
798,1930263778,-29.003262,10.703741,-2.641468,3.101967,1.963567,-1.600491,-118.022682,6.963445,64.935692
799,1930280445,-31.020065,11.653872,-1.440022,3.652279,1.082788,-1.521109,-133.597641,13.035969,89.626747
800,1930297112,-33.050209,12.851485,-0.027326,3.653717,-0.118728,-1.418900,-138.407181,16.035530,108.211624
801,1930313779,-34.826950,14.149978,1.502024,3.512169,-1.077532,-0.928157,-126.633896,13.886709,117.413780
802,1930330446,-36.259239,15.584755,3.075315,3.990645,-0.869190,-1.338618,-108.761444,16.081860,124.182236
803,1930347113,-37.687641,17.246040,4.670424,4.615882,-0.021999,-1.841810,-111.341934,23.505198,133.203232
804,1930363780,-39.324230,19.096821,6.308069,4.411735,-0.400548,-1.616652,-127.422523,27.867266,142.122559
805,1930380447,-41.037540,21.013937,7.899315,3.606778,-0.945845,-1.440514,-134.112869,29.123466,142.675705
806,1930397114,-42.740284,22.964394,9.328348,2.836484,-1.068623,-1.626260,-132.830063,33.153446,137.273987
807,1930413781,-44.556179,24.965239,10.579876,2.710632,-0.770396,-2.020422,-138.009964,38.619663,132.483383
808,1930430448,-46.620617,27.107134,11.609495,3.190993,-0.632735,-2.482700,-149.523056,49.405731,130.625153
809,1930447115,-48.834625,29.364670,12.437510,3.031389,-0.868192,-1.881049,-154.877075,57.849209,129.666504
810,1930463782,-51.114311,31.656916,13.072260,2.179355,-1.342668,-1.289616,-154.647461,62.439495,126.438362
811,1930480449,-53.421661,33.900574,13.492694,1.561042,-1.247009,-1.020832,-150.615845,64.724510,119.472115
812,1930497116,-55.793762,36.083458,13.694185,1.227074,-0.996561,-0.944635,-147.768326,66.892075,112.539558
813,1930513783,-58.255558,38.173294,13.701045,1.021107,-1.163801,-1.198640,-146.467102,67.068504,105.414795
814,1930530450,-60.779129,40.135185,13.609846,0.925277,-1.424025,-0.973281,-146.467361,62.459965,99.341240
815,1930547117,-63.184666,41.894024,13.482957,0.631878,-1.154222,-0.120109,-137.845001,53.720196,90.521927
816,1930563784,-65.298317,43.408146,13.290374,0.443568,-0.603040,0.537969,-117.498840,46.197792,78.190193
817,1930580451,-67.084717,44.684063,13.028825,0.094755,-0.487615,0.896845,-94.788803,40.276436,65.552734
818,1930597118,-68.626556,45.709606,12.779236,-0.355720,-0.437513,1.109477,-80.399841,32.013802,53.082893
819,1930613785,-69.836426,46.468449,12.573842,-0.204811,-0.657447,1.482417,-62.228897,23.177210,39.608551
820,1930630452,-70.603470,46.931850,12.444249,-0.514959,-0.334315,1.822713,-38.882622,13.460536,24.426125
821,1930647119,-71.058662,47.130791,12.329379,-0.889951,-0.076486,2.014730,-20.787615,7.388862,9.797511
822,1930663786,-71.371895,47.059410,12.234683,-1.644329,0.547806,1.609351,-13.151760,1.310853,-5.237545
823,1930680453,-71.568428,46.764404,12.148373,-1.387684,0.019555,1.436099,-6.534987,-3.243007,-17.849628
824,1930697120,-71.779289,46.240036,12.086287,-2.210830,0.066870,1.377334,-8.471342,-8.432065,-30.619558
825,1930713787,-72.035904,45.546917,12.101743,-1.860255,-0.552490,1.912637,-14.587456,-14.501204,-39.287167
826,1930730454,-72.300606,44.777664,12.205873,-2.188727,-0.725916,2.012412,-18.836889,-19.304247,-42.549809
827,1930747121,-72.499542,43.896519,12.358046,-2.731312,-0.742953,1.388947,-16.843163,-23.194391,-48.389587
828,1930763788,-72.585052,42.915874,12.621252,-2.933272,-0.178031,1.184655,-14.509550,-29.583059,-52.667053
829,1930780455,-72.663246,41.969307,12.912885,-3.100628,0.709097,1.263313,-15.027655,-30.273493,-50.338192
830,1930797122,-72.709656,41.181889,13.113823,-2.856277,1.009276,1.713626,-9.315164,-23.659758,-42.423248
831,1930813789,-72.749603,40.590866,13.178077,-3.325100,1.104598,1.608268,-3.454413,-14.298252,-33.011398
832,1930830456,-72.898476,40.141712,13.090041,-3.981108,0.733252,1.368028,-4.051197,-5.098042,-26.962444
833,1930847123,-73.121353,39.809380,12.955937,-4.331641,0.509412,1.173773,-6.747242,-0.914042,-20.912304
834,1930863790,-73.236725,39.632774,12.879121,-4.266420,0.479299,1.127160,-2.526925,-0.659643,-11.226180
835,1930880457,-73.322060,39.685688,12.839293,-4.605639,1.023085,0.701620,-2.155206,1.681826,2.439014
836,1930897124,-73.434319,39.988602,12.838142,-4.766482,1.444117,0.803839,-5.255732,4.260031,17.310459
837,1930913791,-73.470085,40.543667,12.919238,-4.778204,1.492261,1.002086,-3.863076,4.936233,32.874420
838,1930930458,-73.219208,41.330826,13.195135,-5.055765,1.198709,0.799288,5.626985,0.570201,48.706547
839,1930947125,-72.658241,42.272289,13.727293,-5.296596,0.755892,0.212071,13.786667,-7.166276,60.841038
840,1930963792,-71.830765,43.278286,14.535611,-5.307055,0.854304,0.466010,18.116858,-16.481411,68.174660
841,1930980459,-70.686409,44.344135,15.659993,-5.191324,1.062676,1.353105,23.357433,-26.538450,76.015526
842,1930997126,-69.162659,45.453781,17.071215,-5.193922,1.169438,2.043214,33.044670,-34.465843,82.913773
843,1931013793,-67.311203,46.533794,18.705778,-5.349346,1.014355,2.528776,41.923660,-40.236534,85.218109
844,1931030460,-65.298355,47.458755,20.470051,-5.770862,0.364006,2.241431,44.728619,-44.790276,79.586571
845,1931047127,-63.240593,48.096581,22.289120,-5.175283,-0.891766,1.680036,44.000515,-50.443504,66.052269
846,1931063794,-60.986706,48.419769,24.147203,-3.390167,-1.954549,2.024851,53.404560,-57.526325,51.573681
847,1931080461,-58.403423,48.472523,25.987465,-2.469041,-1.738073,2.512461,73.727013,-62.633839,39.397850
848,1931097128,-55.925968,48.370586,27.603697,-2.516286,-0.740055,2.720330,77.458397,-58.402618,29.459194
849,1931113795,-53.853271,48.125111,28.895512,-2.585126,-0.942875,2.507542,67.887596,-51.713154,17.331982
850,1931130462,-52.174736,47.656734,29.866919,-2.090200,-1.930146,1.521766,58.822388,-49.150890,0.751806
851,1931147129,-50.652271,46.838661,30.644228,-1.321557,-3.351402,-0.147758,58.446026,-56.400013,-18.937981
852,1931163796,-48.846561,45.725216,31.258934,0.712799,-3.434003,-0.319490,83.030914,-63.677158,-34.839870
853,1931180463,-46.641483,44.407070,31.642485,0.656705,-2.311811,0.221541,117.363609,-66.287849,-47.924694
854,1931197130,-44.584042,42.976505,31.751066,0.161300,-1.015235,0.973046,120.296394,-64.499672,-58.352116
855,1931213797,-42.872799,41.449265,31.563784,0.434198,-0.577460,1.248193,111.578957,-61.564018,-69.660500
856,1931230464,-41.231209,39.788235,31.140715,0.838756,-1.204575,0.158237,116.377220,-62.201797,-81.360855
857,1931247131,-39.559944,37.930809,30.512743,1.217621,-0.892220,-1.862927,125.271942,-66.979012,-94.858795
858,1931263798,-37.780254,35.857372,29.755163,1.688807,-0.577860,-1.739700,135.427383,-75.542473,-106.397812
859,1931280465,-35.993458,33.649391,28.903793,1.597450,-0.069746,-0.495443,137.686813,-81.898155,-113.357834
860,1931297132,-34.345093,31.362980,27.919624,1.937012,0.416614,0.689826,132.004196,-84.588264,-119.988777
861,1931313799,-32.886814,29.058527,26.793489,2.256016,0.438396,0.493239,122.868454,-83.946030,-125.425293
862,1931330466,-31.642153,26.752342,25.497713,2.503721,0.622971,-1.271723,112.446442,-81.452843,-132.203476
863,1931347133,-30.530054,24.489740,24.025286,3.440369,0.708849,-1.800046,106.308777,-76.253548,-138.533478
864,1931363800,-29.422710,22.309998,22.405121,3.722213,0.485121,-1.501987,106.438362,-69.823929,-142.840347
865,1931380467,-28.309568,20.329010,20.594172,3.884066,0.990814,-1.352723,107.692085,-56.323425,-146.227829
866,1931397134,-27.196016,18.519663,18.616930,3.909809,0.779106,-1.218852,107.670349,-45.060547,-149.754166
867,1931413801,-26.000034,16.944654,16.486807,4.334167,0.717393,-1.995756,112.094154,-31.069340,-151.342407
868,1931430468,-24.737320,15.615417,14.261303,4.583132,1.159828,-2.368756,114.608803,-18.208546,-150.154968
869,1931447135,-23.533464,14.546259,11.977945,4.530605,1.699628,-2.396503,109.293892,-5.497418,-147.107941
870,1931463802,-22.480824,13.752872,9.710202,4.386604,2.238198,-2.744338,97.838440,6.721753,-140.201218
871,1931480469,-21.708279,13.166995,7.646057,3.795555,2.481823,-2.730374,76.600052,11.723217,-124.972275
872,1931497136,-21.237291,12.815197,5.969486,3.092877,2.693286,-2.518717,52.286217,15.239380,-99.082848
873,1931513803,-21.173784,12.726865,4.790283,2.475553,3.252090,-2.297034,20.858538,19.034033,-66.389450
874,1931530470,-21.614229,12.870385,4.194939,1.628986,3.637679,-2.617182,-17.117945,19.751322,-29.433826
875,1931547137,-22.519951,13.148726,4.147191,1.130436,3.591797,-3.059138,-52.315487,15.562754,3.544354
876,1931563804,-23.801605,13.555090,4.537887,1.319917,3.163746,-3.087379,-80.942413,12.492374,30.412733
877,1931580471,-25.388130,14.169715,5.218472,2.023387,2.221509,-2.672803,-103.613579,16.086899,51.252796
878,1931597138,-27.300552,15.081954,6.075788,2.547502,1.880202,-2.482382,-126.376572,26.030603,68.751884
879,1931613805,-29.516438,16.307829,7.051254,2.686516,1.327724,-2.758474,-147.429153,36.968143,84.427078
880,1931630472,-31.703741,17.737360,8.145251,2.799959,0.316267,-3.017866,-149.094955,40.957989,97.569626
881,1931647139,-33.477699,19.256453,9.359221,3.155040,-0.438559,-3.187965,-128.183685,38.691051,107.180588
882,1931663806,-34.576252,20.817379,10.790790,3.766303,-1.165680,-2.752728,-93.973625,31.579315,119.179832
883,1931680473,-35.034138,22.388092,12.442029,4.250837,-0.879901,-1.937955,-62.568085,23.935188,129.325775
884,1931697140,-35.150997,23.978338,14.180454,4.177679,-0.001502,-1.657470,-46.684551,22.085634,133.224701
885,1931713807,-35.348862,25.632454,15.860543,3.916633,0.585874,-1.498712,-52.763954,27.389212,131.939194
886,1931730474,-35.803280,27.344570,17.389166,3.459154,1.043258,-1.649437,-66.758087,34.961964,126.475777
887,1931747141,-36.573872,29.120905,18.768377,3.043504,1.471374,-1.564042,-83.960686,42.149166,121.732811
888,1931763808,-37.801361,30.954575,20.002123,2.572547,1.471171,-1.123607,-109.271049,48.109627,117.526161
889,1931780475,-39.619858,32.829712,20.995110,1.783051,0.635411,-0.557365,-139.147476,55.358097,109.828232
890,1931797142,-41.913731,34.697376,21.689224,1.084784,-0.325312,-0.309580,-159.329315,61.471081,99.401283
891,1931813809,-44.459888,36.467667,22.138214,0.378430,-0.826132,-0.484460,-166.994843,61.650635,88.694901
892,1931830476,-47.092304,38.077377,22.509830,0.442860,-0.938098,-0.889415,-169.988358,53.841038,81.620941
893,1931847143,-49.711357,39.555267,22.830805,1.372320,-0.654972,-0.888509,-167.753998,46.827457,76.319267
894,1931863810,-52.349461,40.929440,23.074753,1.681032,0.117781,-0.353920,-166.277786,42.338554,71.191399
895,1931880477,-55.165077,42.186771,23.160370,0.469092,-0.235716,-0.002463,-170.878830,40.661098,63.192665
896,1931897144,-58.112473,43.250290,23.137032,0.068595,-1.475477,0.036021,-174.419525,35.104027,52.813953
897,1931913811,-60.921177,44.062702,23.067051,0.335597,-2.402047,0.251953,-164.158051,26.472889,40.558079
898,1931930478,-63.456242,44.622227,22.978336,0.666730,-2.586344,0.444486,-146.909470,18.140333,28.013601
899,1931947145,-65.675377,44.938225,22.915064,0.623430,-2.471123,1.137683,-128.992096,9.667317,16.066956
900,1931963812,-67.317398,44.935875,23.078901,0.338495,-1.755810,1.959827,-103.974487,-7.364664,2.750916
901,1931980479,-68.408440,44.696255,23.403067,-0.164638,-1.776384,2.498232,-77.679832,-19.141756,-8.010016
902,1931997146,-68.978493,44.213436,23.885910,-0.600447,-1.587098,2.524985,-52.994503,-30.744469,-19.369474
903,1932013813,-69.137665,43.523354,24.563145,-1.097937,-0.920133,2.757715,-36.206287,-43.118263,-28.098677
904,1932030480,-68.978943,42.681816,25.343216,-1.886763,0.098001,2.656911,-20.955841,-50.932106,-34.846024
905,1932047147,-68.729713,41.795670,26.025126,-2.557964,0.281461,2.454988,-11.042877,-48.396355,-38.574467
906,1932063814,-68.424698,40.882568,26.542866,-2.712783,0.105513,2.303524,-0.717229,-42.692841,-42.405396
907,1932080481,-68.071983,39.907917,26.853573,-3.210464,0.117133,1.730057,10.579347,-35.825027,-48.993134
908,1932097148,-67.912918,38.931557,27.000862,-3.914041,0.087932,1.043285,5.422909,-29.249130,-51.708302
909,1932113815,-68.059837,37.977516,26.976908,-4.163056,0.255893,0.688243,-6.436701,-21.381144,-53.460930
910,1932130482,-68.535538,37.116684,26.814365,-4.545741,0.332202,0.490558,-21.122574,-12.883539,-50.837227
911,1932147149,-69.356163,36.356792,26.443222,-4.404965,0.809583,-0.314957,-34.453869,-0.698685,-48.967754
912,1932163816,-70.499130,35.725170,25.978868,-4.591169,0.756002,0.047349,-50.730354,7.183381,-43.354317
913,1932180483,-71.706650,35.270123,25.487385,-4.503975,1.511608,0.405967,-53.882935,12.900250,-33.650688
914,1932197150,-72.850258,35.025776,24.986349,-4.827257,2.140177,0.389236,-49.881813,17.983568,-21.510727
915,1932213817,-73.722687,34.994736,24.502520,-5.008634,1.727608,0.749110,-34.280399,21.272943,-8.703530
916,1932230484,-74.200470,35.137108,24.101259,-5.067341,1.419217,1.297555,-13.437168,20.339516,2.665551
917,1932247151,-74.053986,35.440552,23.806448,-4.688578,1.423544,1.861376,20.387194,17.911692,13.441237
918,1932263818,-73.396935,35.879265,23.666117,-4.822129,0.912851,1.185438,45.700634,12.992880,23.210001
919,1932280485,-72.286224,36.385330,23.710316,-4.331417,0.424586,1.051804,66.434402,5.962562,29.481310
920,1932297152,-70.680687,36.936527,23.960995,-4.337217,0.464322,1.094779,88.699898,-1.885975,35.007790
921,1932313819,-68.725235,37.549225,24.363306,-4.513986,0.516728,1.663330,104.056679,-6.221638,40.942139
922,1932330486,-66.603676,38.221447,24.816696,-4.197814,0.338448,2.228385,111.913857,-5.486342,45.244305
923,1932347153,-64.492989,38.954773,25.238396,-3.778450,0.165088,2.289660,112.182106,-0.742589,47.993908
924,1932363820,-62.500229,39.706032,25.640451,-3.630315,-0.583518,2.014085,105.590874,2.456727,48.404171
925,1932380487,-60.597912,40.400257,26.089197,-3.138393,-1.433964,2.312591,98.126717,0.760428,46.160088
926,1932397154,-58.613945,41.033802,26.558622,-2.403740,-2.131329,2.733070,101.975410,-0.158511,43.293781
927,1932413821,-56.594761,41.647423,26.972067,-2.044072,-1.822949,2.889020,106.080772,3.011006,40.756855
928,1932430488,-54.468746,42.210175,27.264090,-2.020351,-0.939218,3.039565,117.169769,7.357207,34.898846
929,1932447155,-52.216030,42.731220,27.363310,-1.233703,-0.317400,3.354167,132.461304,14.128944,27.374006
930,1932463822,-49.796997,43.187935,27.257690,-0.710883,-0.494333,3.201308,150.776520,19.822277,18.049332
931,1932480489,-47.270477,43.427704,27.016182,-1.310820,-0.857797,1.805008,162.847382,16.390585,3.465745
932,1932497156,-44.874706,43.317936,26.648508,-1.480167,-1.490101,0.330043,160.217865,5.929504,-16.207483
933,1932513823,-42.613476,42.768509,26.125116,-0.982193,-1.531612,-0.641051,158.425095,-9.020848,-39.714554
934,1932530490,-40.460533,41.854988,25.454672,0.002882,-0.793890,-0.741961,157.578384,-22.392305,-58.955624
935,1932547157,-38.512787,40.658863,24.666136,0.556280,0.086527,0.016100,149.389832,-33.874573,-73.424515
936,1932563824,-36.922001,39.169346,23.755947,0.068336,0.101806,-0.457821,131.810654,-46.183189,-88.136070
937,1932580491,-35.666576,37.321056,22.798908,0.669255,-0.525266,-1.805125,112.196487,-63.804977,-102.311234
938,1932597158,-34.451237,35.153728,21.786865,1.792709,-0.588205,-3.340712,110.138084,-79.439774,-115.098808
939,1932613825,-33.101887,32.781128,20.773802,3.168447,-0.110043,-2.563786,116.250435,-91.431404,-121.347221
940,1932630492,-31.661200,30.344130,19.787874,3.462456,0.002667,-0.961356,118.738945,-97.616646,-121.158447
941,1932647159,-30.347589,27.909710,18.752985,3.038865,0.209431,-0.353958,110.381729,-98.379807,-121.998001
942,1932663826,-29.331602,25.447001,17.591782,2.064751,0.800543,-1.769321,93.589287,-98.311523,-127.772598
943,1932680493,-28.549704,22.991150,16.172695,2.745387,0.837733,-3.266201,83.192924,-92.484192,-139.494080
944,1932697160,-27.861132,20.590441,14.513196,3.308066,0.949535,-3.462899,79.632660,-84.338356,-149.784622
945,1932713827,-27.233292,18.287247,12.620093,3.764114,0.644373,-2.180188,76.831863,-74.070557,-159.095718
946,1932730494,-26.603973,16.189598,10.552050,4.270793,0.634466,-1.601093,75.895058,-59.638889,-162.855057
947,1932747161,-26.004829,14.354471,8.380959,4.872500,1.000010,-1.844885,71.627365,-44.076977,-161.633087
948,1932763828,-25.413664,12.843343,6.278448,5.246377,0.319866,-2.053807,66.502121,-29.540998,-149.991211
949,1932780495,-24.764278,11.688474,4.352491,4.789637,0.788450,-2.137339,64.886520,-15.898847,-131.812881
950,1932797162,-24.217764,10.896059,2.692019,3.975777,1.859388,-2.105669,53.674026,-3.774521,-108.775284
951,1932813829,-23.893488,10.451260,1.392803,3.199155,2.030275,-1.703566,35.264900,5.862709,-80.982910
952,1932830496,-23.925686,10.345896,0.544480,2.628043,2.417050,-1.793480,8.618489,13.532624,-48.480385
953,1932847163,-24.517620,10.535159,0.161307,2.128257,3.407747,-2.161786,-29.997662,18.665270,-16.107271
954,1932863830,-25.787027,10.953901,0.199138,1.936126,3.380187,-2.304824,-75.249817,20.841097,12.548162
955,1932880497,-27.621599,11.589849,0.568288,2.261558,2.646422,-2.154902,-113.078362,23.383575,36.408432
956,1932897164,-29.917768,12.472847,1.186079,2.606002,1.702771,-1.904553,-144.179413,28.067234,57.135864
957,1932913831,-32.569084,13.645036,1.996073,2.835285,1.031908,-1.794719,-168.742554,34.666149,76.826729
958,1932930498,-35.385643,15.102753,2.915280,3.125265,0.216979,-2.093771,-181.364044,41.776764,93.070908
959,1932947165,-38.063004,16.773657,3.834097,3.301186,-1.225257,-1.954772,-174.449936,47.782650,102.331963
960,1932963832,-40.388161,18.637930,4.745029,3.404763,-1.887957,-1.615755,-154.791168,52.859852,110.982140
961,1932980499,-42.527130,20.787394,5.621402,3.875695,-1.395034,-1.817809,-144.715988,63.027054,122.412590
962,1932997166,-44.721275,23.276594,6.518648,4.147164,-0.979830,-1.475997,-150.463623,72.839401,139.116928
963,1933013833,-46.781509,25.965889,7.431099,3.863858,-0.749823,-0.897702,-145.031464,76.104523,150.286270
964,1933030500,-48.616611,28.769352,8.198932,3.613151,0.338426,-1.191251,-129.880127,82.121735,151.938919
965,1933047167,-50.474926,31.627901,8.875401,3.449501,0.501109,-1.388170,-130.500916,83.774979,153.280807
966,1933063834,-52.322025,34.437691,9.563174,3.193701,0.403444,-1.148676,-131.906921,77.330673,153.370346
967,1933080501,-53.983128,37.140438,10.396171,2.687071,0.349730,-0.498030,-127.469620,63.999004,154.133362
968,1933097168,-55.341286,39.670979,11.364039,1.985029,0.255872,-0.148427,-116.138786,49.891190,150.242310
969,1933113835,-56.434284,41.968204,12.374174,0.890693,-0.007824,-0.122808,-103.769485,38.520363,139.915054
970,1933130502,-57.324554,43.948772,13.393353,-0.125220,-0.384723,-0.230227,-93.659492,26.636885,124.065071
971,1933147169,-57.973083,45.594723,14.519622,-0.284892,-0.377092,-0.619064,-85.066216,11.499251,109.186409
972,1933163836,-58.417824,46.936069,15.788102,-0.032500,0.118937,-0.705064,-80.237465,-3.128623,96.216789
973,1933180503,-58.857170,48.033100,17.049406,0.329520,0.064368,-0.352594,-80.694450,-10.243427,82.915398
974,1933197170,-59.445267,48.920559,18.146631,0.080503,-0.529918,0.285316,-83.124962,-11.003078,68.192009
975,1933213837,-60.076984,49.565403,19.109009,-0.826263,-1.037802,0.568075,-80.186172,-13.929746,52.516308
976,1933230504,-60.625916,50.028633,20.027880,-0.794011,-1.391027,0.562744,-73.583664,-18.038273,41.862408
977,1933247171,-61.006432,50.374027,20.867523,0.248184,-0.945364,0.530963,-60.072083,-18.919033,33.919060
978,1933263838,-61.172676,50.704559,21.575918,1.122109,-0.054712,1.108970,-41.315815,-14.935889,30.522982
979,1933280505,-61.388901,51.052563,22.008673,0.326147,0.718842,1.078810,-31.642286,-5.216455,26.295568
980,1933297172,-62.014183,51.363998,22.102396,-0.517943,0.094231,0.752609,-40.425919,4.875328,18.234240
981,1933313839,-63.006256,51.557648,21.941389,-0.966380,-0.626737,0.588087,-50.496357,9.816539,7.641347
982,1933330506,-64.189972,51.563221,21.624487,-1.711422,-0.555979,0.612413,-54.658989,9.841678,-4.848819
983,1933347173,-65.549416,51.359169,21.201317,-2.270113,-0.043772,1.116119,-60.237823,8.219186,-17.703556
984,1933363840,-67.111145,50.982555,20.668249,-3.028095,0.583286,1.647897,-67.319656,8.387954,-28.657520
985,1933380507,-68.712708,50.474251,20.097679,-3.646111,0.318442,2.039191,-68.131737,7.699847,-36.332577
986,1933397174,-70.241226,49.842236,19.438299,-4.113334,0.016852,1.309559,-59.879543,9.528825,-44.341480
987,1933413841,-71.546585,49.064816,18.800526,-4.711140,-0.120449,1.300925,-47.802181,7.315111,-52.176792
988,1933430508,-72.579468,48.130146,18.157328,-4.831430,0.359371,0.922205,-31.591076,6.085160,-61.198059
989,1933447175,-73.383980,47.132130,17.500280,-5.205310,0.741548,0.997921,-17.721561,6.948908,-65.040062
990,1933463842,-74.025192,46.204388,16.860132,-5.112514,1.280885,0.795864,-9.118565,8.752779,-60.856583
991,1933480509,-74.492706,45.437210,16.263504,-4.987624,1.205282,0.825039,-0.978876,10.598643,-51.132004
992,1933497176,-74.629829,44.855232,15.781108,-5.368499,0.716422,0.771002,13.677043,9.456326,-39.177940
993,1933513843,-74.395531,44.461720,15.470431,-5.758155,0.584887,0.478952,28.537498,5.549195,-26.405941
994,1933530510,-73.758560,44.308830,15.410030,-5.548935,1.044304,1.127378,42.119884,-0.950301,-9.674775
995,1933547177,-72.697128,44.478554,15.572640,-5.308255,1.567785,2.610195,58.217800,-4.659776,11.589474
996,1933563844,-71.208305,44.978237,15.906191,-5.803960,1.870240,3.387784,76.590904,-5.150277,32.710659
997,1933580511,-69.427193,45.708794,16.417383,-6.147180,0.945560,3.073021,86.379021,-6.452536,48.302277
998,1933597178,-67.345299,46.511829,17.105824,-5.143478,0.155404,3.135288,96.470970,-9.791793,55.078262
999,1933613845,-64.874184,47.337257,17.935015,-3.980975,0.240536,3.510657,113.236580,-11.938732,58.752583
1000,1933630512,-62.064148,48.168266,18.815845,-3.325749,0.778003,3.905508,130.792175,-10.450800,60.169460
1001,1933647179,-59.053387,48.999447,19.685585,-2.469122,0.849638,3.958086,142.815643,-6.489130,60.069180
1002,1933663846,-56.010620,49.723679,20.537207,-3.157600,0.005148,2.852484,145.088760,-5.696093,54.183647
1003,1933680513,-52.978889,50.148102,21.365255,-2.718556,-1.701520,1.230116,145.181854,-12.196515,38.940861
1004,1933697180,-49.707912,50.229321,22.175343,-1.329159,-2.324263,1.004264,160.220078,-22.237616,22.870815
1005,1933713847,-46.283089,50.044765,22.805956,-0.888257,-1.443635,1.522784,177.751938,-26.434181,7.621767
1006,1933730514,-43.169285,49.749928,23.099571,-0.507401,-0.072972,1.886750,174.655853,-21.579752,-4.765827
1007,1933747181,-40.704418,49.322750,23.060743,-1.318487,-0.120009,1.185414,150.969635,-19.091251,-18.633886
1008,1933763848,-38.819870,48.550056,22.811752,-1.898210,-1.375425,-1.191958,125.636864,-30.412832,-37.578739
1009,1933780515,-37.001114,47.401115,22.470385,-0.278801,-2.693160,-2.250975,125.636208,-47.037834,-53.557964
1010,1933797182,-35.005577,45.982891,21.996252,-0.118169,-1.909525,-2.002010,141.735886,-58.464096,-66.183990
1011,1933813849,-33.356544,44.378799,21.278116,-0.822301,-0.704898,-0.908957,130.812637,-63.671234,-79.564262
1012,1933830516,-32.312794,42.617279,20.372450,-0.803896,-0.703328,-0.411643,101.337166,-68.559647,-90.787247
1013,1933847183,-31.569918,40.678658,19.311045,-0.132426,-1.574299,-0.806637,88.202286,-74.669716,-102.272415
1014,1933863850,-30.763988,38.539261,18.104452,0.162960,-1.642609,-1.511661,95.826340,-82.123161,-114.501518
1015,1933880517,-29.778051,36.221539,16.741306,0.742564,-1.265746,-1.870469,110.127586,-88.506668,-126.561890
1016,1933897184,-28.713324,33.813236,15.289313,1.610447,-1.064051,-1.540090,115.199638,-92.395988,-133.167740
1017,1933913851,-27.559607,31.343004,13.826329,2.115283,-1.135184,-1.409350,117.820518,-96.997070,-135.426910
1018,1933930518,-26.377079,28.799625,12.308916,2.486699,-0.851919,-2.053639,117.913284,-101.458290,-139.715744
1019,1933947185,-25.119610,26.191082,10.677032,2.860165,-0.501636,-2.927776,122.000961,-104.421616,-146.491119
1020,1933963852,-23.764614,23.570263,8.937760,3.712965,0.184299,-3.505950,126.560677,-105.157272,-151.504715
1021,1933980519,-22.368265,21.030672,7.190945,4.839401,0.132471,-3.234175,124.917725,-103.359108,-149.162125
1022,1933997186,-20.844812,18.727884,5.541398,5.910324,-0.186096,-2.880757,126.431953,-95.331047,-137.632950
1023,1934013853,-19.169847,16.817793,4.018167,6.051706,0.642895,-2.577721,129.776169,-79.036804,-121.190872
1024,1934030520,-17.454348,15.298115,2.647471,5.235871,1.518048,-2.156570,127.068405,-62.828426,-103.870041
1025,1934047187,-15.854174,14.159077,1.465101,4.416162,2.059039,-2.240831,115.436073,-46.884987,-85.498985
1026,1934063854,-14.530543,13.357500,0.518508,3.715904,2.642183,-1.993698,94.311119,-33.007549,-66.013092
1027,1934080521,-13.628219,12.882243,-0.191123,3.334136,3.231821,-1.663289,65.178925,-18.603361,-47.326321
1028,1934097188,-13.305820,12.761127,-0.646887,3.241396,3.666572,-1.456078,26.772909,-1.873668,-27.784313
1029,1934113855,-13.624819,12.993385,-0.754945,2.996768,3.809963,-1.365249,-16.350073,14.027783,-3.072146
1030,1934130522,-14.576846,13.535252,-0.478287,2.974185,3.909238,-1.706744,-59.601326,26.618389,23.415890
1031,1934147189,-16.086937,14.325306,0.155345,3.144290,3.478857,-2.002224,-98.444679,35.001289,47.945103
1032,1934163856,-18.049683,15.323365,1.127765,3.310507,2.463857,-1.838472,-131.389053,39.756096,71.319481
1033,1934180523,-20.432320,16.523722,2.368052,3.501233,1.922011,-1.989777,-162.074005,43.504040,91.130219
1034,1934197190,-23.291822,17.929373,3.730371,3.887677,1.494129,-2.233515,-194.472183,48.317829,103.703407
1035,1934213857,-26.631384,19.538067,5.115367,3.769789,0.961586,-2.474513,-225.752243,53.436310,111.944870
1036,1934230524,-30.303829,21.276621,6.454755,3.042541,-0.000714,-2.279914,-247.046555,54.970089,115.815285
1037,1934247191,-34.052464,23.119947,7.697817,2.725837,-0.597780,-2.442046,-251.765335,56.022881,117.253151
1038,1934263858,-37.703468,25.057732,8.875419,2.930822,-1.153056,-2.277820,-246.556412,55.601742,120.332878
1039,1934280525,-41.036236,27.086355,10.005718,3.282576,-1.646111,-1.993666,-228.412781,54.661030,124.249199
1040,1934297192,-43.873272,29.170675,11.076815,3.400518,-1.793481,-1.345640,-199.150116,53.220490,126.201637
1041,1934313859,-46.181038,31.309332,12.058999,2.816776,-1.802141,-0.726786,-166.760757,53.884392,126.751060
1042,1934330526,-47.987244,33.424484,12.939855,2.162211,-1.903465,-0.526755,-135.266830,52.928970,123.345879
1043,1934347193,-49.393250,35.475834,13.749770,1.934582,-1.639081,-0.670730,-110.437927,50.351768,118.925575
1044,1934363860,-50.501976,37.427132,14.485709,1.785187,-0.887550,-0.753358,-91.338615,47.346653,112.509796
1045,1934380527,-51.384010,39.281605,15.086509,1.661721,-0.290461,-0.772439,-73.860939,47.351978,104.261917
1046,1934397194,-52.301033,41.055103,15.556043,1.091516,-0.079407,-0.908072,-71.758774,48.006790,97.029945
1047,1934413861,-53.374725,42.679508,15.894081,0.479501,-0.309428,-0.548459,-76.514236,46.028732,86.864204
1048,1934430528,-54.643867,44.120876,16.051331,-0.128504,-0.732125,-0.270097,-81.185944,44.458530,74.074944
1049,1934447195,-56.061832,45.334541,16.058607,-0.469689,-1.129506,-0.198016,-83.936821,40.317402,60.162098
1050,1934463862,-57.508549,46.325001,15.970835,-0.255743,-1.169176,-0.222363,-81.573090,34.787125,47.787048
1051,1934480529,-58.845100,47.107590,15.852664,-0.280662,-1.157180,0.003118,-73.578804,28.041143,37.415592
1052,1934497196,-60.054890,47.687222,15.738200,-0.458809,-0.973207,0.603054,-66.076988,20.820143,27.671881
1053,1934513863,-61.133526,48.057823,15.598797,-0.494476,-0.896531,0.937213,-57.056908,14.935404,16.699078
1054,1934530530,-62.013500,48.235519,15.439133,-0.505174,-0.675130,1.430545,-44.209648,9.815748,6.415113
1055,1934547197,-62.739552,48.248466,15.227584,-0.757744,-0.720781,1.311177,-32.634651,6.963306,-3.150541
1056,1934563864,-63.416271,48.105865,14.942041,-0.698944,-1.008913,1.135053,-26.376614,5.419311,-12.724530
1057,1934580531,-64.102234,47.837646,14.550194,-0.759162,-1.190396,1.320333,-22.236307,6.098629,-21.317678
1058,1934597198,-64.924309,47.472897,14.001452,-1.028967,-0.930530,2.001008,-23.528833,9.691250,-29.227039
1059,1934613865,-65.940132,47.084038,13.316792,-1.385595,-0.864566,3.085869,-29.309410,14.729533,-32.740196
1060,1934630532,-67.156883,46.717350,12.532658,-2.164357,-0.244335,3.479590,-37.194695,19.808018,-32.918262
1061,1934647199,-68.644920,46.393112,11.658381,-3.313122,0.641698,3.150533,-49.740231,25.170980,-31.546001
1062,1934663866,-70.380493,46.125107,10.747969,-4.407800,1.189740,2.622029,-63.221092,28.812689,-28.248562
1063,1934680533,-72.185448,45.909180,9.932698,-5.703169,2.072887,2.011451,-71.660385,27.075972,-23.161539
1064,1934697200,-73.959076,45.732090,9.254773,-6.713535,2.984855,1.387780,-75.822815,23.083771,-18.439178
1065,1934713867,-75.620667,45.607845,8.807961,-6.770971,2.935783,1.243004,-79.111504,15.184686,-12.163602
1066,1934730534,-76.860901,45.553993,8.704826,-6.259584,2.331534,1.362929,-68.600113,2.509056,-4.256582