sep=,
DeviceTag:,DOT1
FirmwareVersion:,3.0.0
AppVersion:,2023.6.0
SyncStatus:,Synced
OutputRate:,60Hz
FilterProfile:,Dynamic
Measurement Mode:,Custom modes - custom mode1
StartTime: ,2026-03-17_10:05:04_445 GMT+1
© Movella Technologies B. V. 2005-2026

PacketCounter,SampleTimeFine,Euler_X,Euler_Y,Euler_Z,FreeAcc_X,FreeAcc_Y,FreeAcc_Z,Gyr_X,Gyr_Y,Gyr_Z
1,155266108,17.877764,8.624490,83.551079,0.063025,-0.006676,-0.417613,3.532075,1.737342,-6.469461
2,155282775,17.932020,8.675787,83.452286,0.063918,-0.024342,-0.317585,3.208882,0.999145,-6.630887
3,155299442,17.981060,8.712545,83.346313,0.111608,0.030440,-0.342025,2.965752,0.032599,-6.767067
4,155316109,18.030865,8.743507,83.235481,0.108749,0.067228,-0.447497,3.060366,-0.392860,-6.932873
5,155332776,18.084213,8.769533,83.125404,0.098025,0.123401,-0.424991,3.270428,-0.665700,-6.796997
6,155349443,18.128927,8.798467,83.017326,0.069747,0.104605,-0.420529,2.737697,-0.468021,-6.736768
7,155366110,18.151543,8.827447,82.905952,-0.034062,0.113067,-0.346879,1.445370,-0.529927,-6.924702
8,155382777,18.142872,8.851664,82.797638,-0.079923,0.097790,-0.369767,-0.456124,-0.744612,-6.660416
9,155399444,18.133110,8.862511,82.703049,-0.031285,0.098017,-0.423720,-0.646721,-1.252320,-5.638021
10,155416111,18.145332,8.860620,82.617691,-0.055127,0.095379,-0.447881,0.587831,-1.807232,-4.878682
11,155432778,18.164185,8.848129,82.535934,-0.093438,0.152949,-0.475948,0.951352,-2.346853,-4.480046
12,155449445,18.174911,8.829893,82.463966,-0.153847,0.153278,-0.514710,0.372735,-2.493346,-3.819174
13,155466112,18.180876,8.812875,82.395172,-0.112147,0.111847,-0.548904,0.056508,-2.365653,-3.663513
14,155482779,18.195518,8.797130,82.331154,-0.137224,0.112287,-0.585621,0.531528,-2.204651,-3.417733
15,155499446,18.215889,8.780971,82.278557,-0.199467,0.128295,-0.597668,0.769886,-2.017525,-2.766453
16,155516113,18.225161,8.763135,82.237892,-0.212117,0.078905,-0.609473,-0.006787,-1.892100,-2.062988
17,155532780,18.228340,8.740867,82.208939,-0.170058,0.055033,-0.592693,-0.480597,-1.927766,-1.321615
18,155549447,18.238052,8.718194,82.187714,-0.140971,0.058677,-0.581140,-0.159798,-1.806937,-0.877555
19,155566114,18.264214,8.695402,82.176933,-0.105242,0.062161,-0.645106,0.731211,-1.620195,-0.287631
20,155582781,18.305721,8.671564,82.179230,-0.098040,0.097933,-0.579577,1.533477,-1.435912,0.469602
21,155599448,18.338560,8.649240,82.183197,-0.096057,0.097995,-0.561511,0.998197,-1.317978,0.535478
22,155616115,18.353836,8.627678,82.193977,-0.102438,0.102634,-0.460059,-0.116704,-1.146168,0.906427
23,155632782,18.349747,8.602787,82.214348,-0.023894,0.052994,-0.468259,-1.365054,-1.156465,1.507455
24,155649449,18.352402,8.566656,82.244072,0.025458,0.052789,-0.476711,-1.043436,-1.621181,2.246753
25,155666116,18.367519,8.519023,82.284492,0.009555,0.135920,-0.541568,-0.389121,-2.075282,3.067691
26,155682783,18.389456,8.464349,82.331970,0.087349,0.167707,-0.551960,-0.040583,-2.342486,3.598898
27,155699450,18.408886,8.407157,82.380775,0.135386,0.223509,-0.549556,-0.199433,-2.458614,3.724080
28,155716117,18.407839,8.347260,82.437027,0.115148,0.106595,-0.417134,-1.489852,-2.471062,4.193446
29,155732784,18.387466,8.279432,82.493935,0.164860,0.042056,-0.549801,-2.650594,-2.909859,4.383377
30,155749451,18.369753,8.198844,82.568192,0.169492,0.097247,-0.709270,-2.635714,-3.312261,5.601390
31,155766118,18.372143,8.105322,82.671242,0.235311,0.212912,-0.809707,-1.667374,-3.509773,7.470054
32,155782785,18.395878,7.998410,82.804382,0.312298,0.277698,-0.754084,-0.627870,-3.705173,9.421090
33,155799452,18.424711,7.888721,82.965714,0.381560,0.401291,-0.736812,-0.539865,-3.326797,11.070539
34,155816119,18.452291,7.789059,83.159714,0.447358,0.519493,-0.743070,-0.863827,-2.133770,12.725402
35,155832786,18.485071,7.702519,83.399261,0.505394,0.573641,-0.612542,-0.900902,-0.519426,15.048811
36,155849453,18.513983,7.631673,83.671532,0.583491,0.572378,-0.612531,-1.373674,1.003154,16.599970
37,155866120,18.528765,7.577812,83.971710,0.531346,0.709038,-0.658072,-2.423848,2.506481,17.852270
38,155882787,18.532089,7.538774,84.307205,0.450767,0.761674,-0.537663,-3.374183,4.023562,19.562412
39,155899454,18.550528,7.504264,84.671852,0.501402,0.737649,-0.550920,-2.682294,4.840519,21.122780
40,155916121,18.612846,7.469314,85.066208,0.496469,0.722614,-0.454215,-0.267833,5.396677,22.803139
41,155932788,18.706581,7.429315,85.497177,0.391694,0.715437,-0.523328,1.349107,5.841944,24.961010
42,155949455,18.810167,7.380774,85.963455,0.371109,0.797046,-0.649508,1.688080,6.079197,27.106934
43,155966122,18.906918,7.328809,86.474533,0.422587,0.891670,-0.639075,0.959269,6.798344,29.688681
44,155982789,18.997461,7.270021,87.039520,0.480568,0.866793,-0.610866,0.205997,7.506849,32.849346
45,155999456,19.098749,7.202131,87.635628,0.488976,0.832432,-0.607424,0.653876,7.654922,34.770367
46,156016123,19.231445,7.121308,88.267685,0.464051,0.902498,-0.745012,2.317199,7.701450,37.036106
47,156032790,19.405548,7.027882,88.952751,0.356614,0.987111,-0.796616,4.468451,8.137094,40.252232
48,156049457,19.588816,6.920739,89.696854,0.264185,0.945319,-0.633888,4.660347,8.667252,43.823208
49,156066124,19.740330,6.814099,90.481102,0.309308,0.870107,-0.704970,2.550834,9.635515,46.048817
50,156082791,19.840801,6.717564,91.309990,0.252259,0.876371,-0.776984,-0.742877,11.214741,48.334202
51,156099458,19.924316,6.650023,92.179901,0.329025,0.901270,-0.822887,-1.975245,13.765876,50.031815
52,156116125,20.027443,6.612441,93.085030,0.267076,0.741223,-0.525082,-0.993322,16.259113,51.371880
53,156132792,20.134674,6.604922,93.998085,0.214838,0.418399,-0.125564,-0.779467,18.213194,51.168003
54,156149459,20.199490,6.612538,94.896767,0.058527,-0.057264,0.282453,-3.224415,18.849159,50.024742
55,156166126,20.208815,6.616488,95.782295,-0.035942,-0.439288,0.306907,-6.467514,18.404257,49.351505
56,156182793,20.202515,6.602476,96.664497,0.050049,-0.557812,0.004129,-7.377261,17.325184,49.539146
57,156199460,20.250734,6.567548,97.557358,0.175393,-0.445674,-0.297303,-4.156842,16.385088,50.565025
58,156216127,20.357239,6.516510,98.451164,0.201161,-0.298169,-0.393763,-0.626019,15.567139,50.935913
59,156232794,20.438242,6.466510,99.335197,0.130174,-0.290048,-0.463270,-2.041967,15.507255,50.348232
60,156249461,20.425779,6.424345,100.195396,0.074140,-0.348582,-0.463597,-7.446373,15.483016,48.848454
61,156266128,20.329659,6.393386,101.028816,0.073469,-0.383259,-0.656075,-12.253536,15.511672,47.136208
62,156282795,20.198874,6.360103,101.846954,0.010570,-0.421704,-0.608376,-14.203203,14.971842,46.363548
63,156299462,20.070869,6.323893,102.644783,-0.031028,-0.492417,-0.631406,-13.872341,14.285510,45.323910
64,156316129,19.963383,6.283130,103.410362,-0.136842,-0.539797,-0.601923,-12.396836,13.277249,43.643059
65,156332796,19.834433,6.241105,104.141258,-0.292260,-0.586893,-0.496851,-13.425851,12.412163,41.756062
66,156349463,19.660192,6.204433,104.846153,-0.388613,-0.687334,-0.412784,-15.945107,12.078964,40.221424
67,156366130,19.484123,6.174181,105.523422,-0.454389,-0.770332,-0.344708,-15.852892,11.765968,38.579220
68,156382797,19.331083,6.136921,106.174004,-0.483033,-0.758631,-0.442007,-14.277771,10.728809,37.254559
69,156399464,19.238089,6.081412,106.814148,-0.538275,-0.676163,-0.560956,-10.579434,9.408396,37.052074
70,156416131,19.183130,6.015472,107.446388,-0.485493,-0.657164,-0.536092,-8.208595,8.614000,36.827770
71,156432798,19.107048,5.941527,108.053864,-0.447710,-0.573152,-0.519300,-9.276646,7.633679,35.602745
72,156449465,18.986250,5.876919,108.646400,-0.524961,-0.434238,-0.656763,-11.825404,7.811471,34.594601
73,156466132,18.818550,5.823000,109.233727,-0.464430,-0.280868,-0.804980,-14.572740,8.231061,34.115231
74,156482799,18.665079,5.784385,109.815002,-0.282743,-0.134425,-0.989822,-13.655797,8.888725,33.500946
75,156499466,18.569536,5.747626,110.376900,-0.199919,-0.119831,-0.867717,-10.040835,8.552981,32.390606
76,156516133,18.516031,5.713398,110.922882,-0.264865,-0.256211,-0.761492,-7.403482,8.353532,31.455891
77,156532800,18.453825,5.685124,111.441696,-0.356246,-0.315372,-0.664747,-7.746831,8.146539,29.811474
78,156549467,18.352240,5.660265,111.938591,-0.469473,-0.397343,-0.527106,-9.966256,7.885133,28.518564
79,156566134,18.224842,5.635790,112.420906,-0.494140,-0.381479,-0.384435,-11.417756,7.576485,27.699234
80,156582801,18.095354,5.607008,112.892555,-0.406554,-0.303581,-0.317465,-11.468354,7.070133,27.192726
81,156599468,17.989336,5.574183,113.348076,-0.389897,-0.317049,-0.280997,-9.952803,6.485225,26.365936
82,156616135,17.893593,5.538430,113.793221,-0.426545,-0.351702,-0.358107,-9.260463,6.081413,25.844275
83,156632802,17.726667,5.510161,114.240219,-0.735950,-0.452912,-0.190124,-13.529272,6.482793,25.824923
84,156649469,17.445461,5.495797,114.660515,-0.646459,-0.592519,-0.272088,-20.224257,6.695318,24.078756
85,156666136,17.065426,5.480819,115.049454,-0.613085,-0.512012,-0.012209,-25.969694,5.964396,22.337858
86,156682803,16.650860,5.444881,115.413490,-0.343981,-0.752944,0.073788,-27.891087,4.173230,21.319048
87,156699470,16.247856,5.378923,115.748703,-0.324825,-0.458629,-0.096360,-27.017071,1.804902,20.210119
88,156716137,15.889238,5.289545,116.074501,-0.459784,-0.590349,-0.335208,-24.275478,0.164223,20.071722
89,156732804,15.594094,5.208062,116.369339,-0.809963,-0.522651,-0.644395,-20.270006,0.003464,18.166142
90,156749471,15.294635,5.114017,116.670982,-0.782716,-0.530385,-0.374298,-20.541014,-0.709282,18.758308
91,156766138,14.979215,5.007657,116.925957,-0.586595,-0.411328,-0.144708,-21.223310,-2.251733,16.256887
92,156782805,14.697392,4.884736,117.172661,-0.650396,-0.029899,-0.259726,-19.135736,-3.423567,16.022602
93,156799472,14.424042,4.777837,117.383034,-0.778554,0.160739,-0.229321,-18.416243,-3.115522,13.663702
94,156816139,14.161427,4.636281,117.656471,-0.636261,0.816794,-0.208355,-18.057161,-4.262142,17.814663
95,156832806,13.905944,4.498955,117.938324,-0.665993,0.725729,0.176023,-17.629419,-3.970618,18.223999
96,156849473,13.558588,4.326406,118.256737,-0.458166,1.067315,0.114331,-23.265558,-5.596600,20.831785
97,156866140,13.163620,4.124468,118.563873,-0.294430,1.320440,-0.121429,-26.009880,-7.598423,20.550171
98,156882807,12.724133,3.918612,118.846741,-0.260003,1.522010,-0.373127,-28.511707,-8.297999,19.134478
99,156899474,12.248013,3.696098,119.123199,-0.110972,1.351358,-0.326571,-30.619356,-9.504354,18.911514
100,156916141,11.752748,3.453562,119.352806,0.081478,0.974629,-0.199512,-31.523563,-11.418506,16.340734
101,156932808,11.286441,3.181399,119.552490,0.249669,0.910014,-0.229039,-29.618521,-13.651861,14.848384
102,156949475,10.904160,2.878130,119.731705,0.274571,0.489057,-0.259168,-24.450058,-15.826513,13.906688
103,156966142,10.592651,2.549863,119.913696,0.102422,0.027200,-0.268425,-20.151072,-17.351686,14.258577
104,156982809,10.313997,2.198904,120.107864,-0.021219,-0.491563,-0.249444,-18.145235,-18.631210,15.136145
105,156999476,10.003841,1.824401,120.313484,-0.177921,-0.905124,-0.322511,-19.986343,-19.978939,15.969558
106,157016143,9.637395,1.444573,120.517540,-0.154277,-1.118946,-0.514865,-23.281837,-20.405619,15.817624
107,157032810,9.269634,1.061895,120.727158,0.072406,-1.000440,-0.698557,-23.288921,-20.623117,16.046280
108,157049477,8.998169,0.693162,120.932396,0.319631,-0.924979,-1.046044,-17.425976,-19.930662,15.541522
109,157066144,8.820949,0.334107,121.119583,0.284316,-0.868599,-1.241958,-11.684261,-19.588066,14.307476
110,157082811,8.719535,-0.003958,121.268837,0.313382,-0.772164,-1.444069,-7.061870,-18.728041,11.817932
111,157099478,8.674794,-0.313884,121.361618,0.334855,-0.702908,-1.463078,-3.620615,-17.588863,8.192379
112,157116145,8.677869,-0.589675,121.384796,0.162264,-0.683106,-1.335098,-0.756485,-16.199266,3.751297
113,157132812,8.681453,-0.825261,121.347343,-0.007644,-0.737882,-1.173733,-0.765270,-14.365406,-0.207015
114,157149479,8.671941,-1.029622,121.272972,-0.109062,-0.708187,-1.060884,-1.596517,-12.849541,-2.678872
115,157166146,8.648571,-1.208916,121.195503,-0.192327,-0.660842,-0.997522,-2.447909,-11.391561,-3.092005
116,157182813,8.637547,-1.373089,121.301170,-0.191613,-0.572208,-1.035690,-2.016860,-9.983116,-2.070647
117,157199480,8.688473,-1.522005,121.424164,-0.153441,-0.406819,-1.044728,1.804268,-8.751003,0.297434
118,157216147,8.781647,-1.643698,121.459305,-0.254369,-0.260051,-0.773851,4.691869,-6.958319,3.080856
119,157232814,8.833907,-1.744939,121.514641,-0.212532,-0.235288,-0.524857,2.275874,-5.556650,4.098064
120,157249481,8.808397,-1.821560,121.569855,-0.156227,-0.168533,-0.479258,-2.385759,-4.097199,3.866397
121,157266148,8.741893,-1.883343,121.725143,-0.118850,0.299798,-0.666494,-5.125576,-3.185465,2.320466
122,157282815,8.736347,-1.930724,121.778084,-0.003395,0.508536,-0.871466,-1.184677,-2.389242,3.459860
123,157299482,8.794840,-1.974907,121.911583,-0.106465,0.784941,-0.661166,2.541939,-1.971730,3.940226
124,157316149,8.883076,-2.007131,121.997231,-0.274574,1.036840,-0.288845,4.517653,-1.179721,5.263098
125,157332816,8.887839,-2.025581,122.101654,-0.615592,1.296950,0.010240,-0.447185,-0.181786,6.248367
126,157349483,8.735608,-2.033434,122.219978,-0.675242,1.729689,0.369765,-9.834935,0.570427,6.973630
127,157366150,8.452120,-2.044839,122.423134,-0.292893,2.468858,0.580483,-17.844263,0.548247,7.332163
128,157382817,8.109584,-2.062284,122.613014,0.062067,3.396127,0.817570,-21.314455,0.196533,7.993770
129,157399484,7.711975,-2.098396,122.821434,0.030255,3.913673,1.030043,-24.561689,-0.794636,9.337368
130,157416151,7.229009,-2.154017,123.011978,-0.040312,4.468193,1.316711,-29.486853,-1.843519,11.649484
131,157432818,6.596838,-2.230237,123.266022,-0.144676,4.887873,1.464949,-38.388062,-2.860943,13.884731
132,157449485,5.726262,-2.313090,123.522072,-0.437086,5.410043,1.593446,-52.592457,-3.343261,14.965036
133,157466152,4.620526,-2.369608,123.790077,-0.811952,5.938834,1.516931,-66.633492,-1.940040,15.650853
134,157482819,3.286017,-2.375369,124.038902,-0.708026,6.319363,1.522123,-80.380821,0.705064,14.381966
135,157499486,1.777146,-2.345763,124.250435,-0.475583,6.250165,1.836265,-90.845566,2.396197,13.228539
136,157516153,0.167188,-2.286755,124.470993,-0.861706,5.719560,1.975326,-96.872681,3.818400,14.040401
137,157532820,-1.560072,-2.171525,124.678101,-1.533643,5.391834,1.312143,-103.995720,6.830819,12.798656
138,157549487,-3.378133,-1.952128,124.805504,-1.947415,5.261349,0.679064,-109.562668,12.795229,9.802090
139,157566154,-5.237041,-1.590725,124.795670,-1.759509,5.051275,0.119987,-112.329117,21.634981,2.347147
140,157582821,-7.153918,-1.054932,124.594330,-1.517852,4.850427,-0.820968,-116.017578,33.046329,-6.138400
141,157599488,-9.082520,-0.307893,124.210434,-1.617150,3.771719,-1.221701,-116.723389,47.272636,-13.686651
142,157616155,-11.080245,0.656901,123.611519,-1.311487,3.106551,-2.231876,-120.526665,62.834068,-22.411110
143,157632822,-13.013499,1.838444,122.752296,-0.647519,3.223990,-3.070553,-115.695648,79.449837,-32.380493
144,157649489,-14.759506,3.194685,121.640671,0.256314,2.550796,-3.533060,-102.724731,94.292221,-42.082218
145,157666156,-16.219648,4.754991,120.259018,1.252085,1.303529,-3.722844,-82.855286,111.371399,-51.135273
146,157682823,-17.540346,6.518339,118.589813,1.297559,-0.075084,-4.117007,-70.519073,129.095642,-60.909557
147,157699490,-18.911356,8.419183,116.712883,1.248832,-1.716872,-4.425078,-68.468452,143.422440,-70.409103
148,157716157,-20.412460,10.365505,114.595245,1.610037,-3.225756,-4.007125,-70.180984,152.307724,-78.772316
149,157732824,-21.946098,12.280096,112.333015,1.919664,-4.339393,-3.387767,-66.223816,155.346436,-82.619576
150,157749491,-23.370462,14.024267,110.072990,2.037991,-4.356966,-2.685388,-55.473640,147.570892,-81.556343
151,157766158,-24.632965,15.618975,107.890465,1.823018,-5.243566,-2.583247,-43.128860,139.017075,-76.746323
152,157782825,-26.102867,16.981958,105.789658,1.295628,-6.693551,-1.867907,-53.698082,125.825661,-74.302879
153,157799492,-27.601389,18.013805,103.789955,2.515435,-6.997284,-1.488239,-54.728481,107.004250,-74.154968
154,157816159,-28.880732,18.742849,101.912193,2.208750,-6.554125,-2.069378,-42.136566,89.188126,-73.527573
155,157832826,-29.785328,19.350571,100.267052,1.175455,-6.291555,-1.954789,-22.966866,77.537514,-63.519920
156,157849493,-30.324074,19.841743,98.953140,0.256154,-6.903747,-0.067161,-6.791810,62.728111,-49.574348
157,157866160,-30.584284,20.165611,98.039322,-0.098564,-6.815275,0.949213,2.230102,42.870258,-34.624996
158,157882827,-30.593084,20.353388,97.529282,-0.013885,-5.326334,0.932236,9.153442,24.297863,-19.054625
159,157899494,-30.335510,20.484535,97.428375,0.607941,-4.112614,0.481964,16.647581,9.633980,-0.983696
160,157916161,-29.847708,20.570515,97.630806,0.551505,-3.987928,0.229735,24.090656,-1.275977,12.339173
161,157932828,-29.410507,20.558664,97.965828,0.713162,-3.659225,0.037497,18.252916,-9.968960,15.912857
162,157949495,-29.107050,20.532156,98.312714,1.101637,-2.579469,-0.576556,9.984994,-10.971347,16.126469
163,157966162,-28.993429,20.542675,98.586647,1.478326,-1.730210,-0.240396,0.136945,-6.986920,13.658208
164,157982829,-29.011963,20.587156,98.782242,1.580894,-1.439700,0.410755,-6.146398,-3.064408,10.800401
165,157999496,-29.105185,20.616447,98.938583,1.369663,-0.991770,0.820107,-9.801960,-2.805912,8.425821
166,158016163,-29.109678,20.636526,99.139999,1.662157,-0.799635,0.677785,-5.431189,-4.529582,10.364011
167,158032830,-28.969820,20.621580,99.408134,1.381072,-1.202549,0.716311,1.821814,-8.177771,12.626372
168,158049497,-28.762886,20.523735,99.803444,0.626799,-1.513461,1.235230,3.184452,-15.950121,16.509600
169,158066164,-28.658159,20.315783,100.337677,-0.451015,-1.867723,1.524035,-5.795549,-25.466064,20.247936
170,158082831,-28.795080,19.977074,101.041100,-0.664938,-2.767138,1.861786,-23.650631,-36.962589,24.871080
171,158099498,-29.087509,19.471367,101.937805,-0.044698,-3.558291,1.930257,-36.606304,-51.163448,29.524521
172,158116165,-29.272060,18.804893,103.069336,0.934211,-3.712824,1.570913,-34.236454,-66.294807,36.384151
173,158132832,-29.182606,18.036572,104.455368,1.110473,-3.654615,1.197198,-21.819052,-78.874481,46.223522
174,158149499,-28.923378,17.147943,106.037888,1.057344,-4.094086,1.136912,-14.055614,-90.689697,53.102104
175,158166166,-28.609901,16.103218,107.751480,1.507140,-4.857316,1.016586,-11.523892,-102.495972,56.062515
176,158182833,-28.195164,14.858074,109.603012,2.288977,-5.680811,0.498731,-5.686771,-116.789528,58.502075
177,158199500,-27.473795,13.413185,111.614983,2.908509,-6.273056,-0.203527,12.873025,-131.486023,62.901440
178,158216167,-26.499590,11.808385,113.804047,2.205940,-5.958856,-0.661454,28.842045,-144.147903,70.380859
179,158232834,-25.613068,10.114136,116.091446,0.643514,-4.853387,-0.733462,26.152279,-150.705673,76.246803
180,158249501,-25.042778,8.386913,118.374283,0.002971,-4.831688,-0.733794,11.249274,-151.713486,77.710320
181,158266168,-24.711153,6.598224,120.625305,1.232233,-4.956491,-0.496428,1.325589,-153.912857,76.184113
182,158282835,-24.346018,4.716891,122.774033,2.490940,-3.770360,-1.226484,8.225350,-156.185333,69.701668
183,158299502,-23.892334,2.902781,124.725090,1.033712,-1.965711,-2.840622,18.290249,-149.267014,66.085800
184,158316169,-23.509193,1.301593,126.587364,-0.750931,-1.388488,-3.308344,17.864243,-134.997131,67.545456
185,158332836,-23.228312,-0.044646,128.356491,-0.492787,-1.946353,-2.937122,14.766488,-118.423080,69.433853
186,158349503,-23.132751,-1.329802,129.998352,1.034344,-1.518034,-1.622541,6.076207,-111.706924,63.994331
187,158366170,-23.147528,-2.600174,131.447433,1.184001,0.014297,-1.227509,1.343959,-106.289589,53.750187
188,158382837,-23.159693,-3.761651,132.734604,0.348119,0.795305,-1.793588,2.883704,-96.400230,47.194141
189,158399504,-23.077557,-4.692100,133.864914,0.181118,0.967248,-2.858384,9.328237,-79.906647,43.996990
190,158416171,-22.841419,-5.458363,134.923386,0.461228,1.610194,-2.702135,18.772829,-67.259254,40.187206
191,158432838,-22.518410,-6.131744,135.856155,0.076166,1.972084,-1.405592,24.019987,-58.994045,35.674831
192,158449505,-22.234339,-6.670219,136.661835,-0.745255,1.925557,-0.478670,21.423946,-48.404968,32.006092
193,158466172,-22.063587,-7.056994,137.308701,-0.793280,1.905799,-0.381998,13.875999,-36.255852,26.828249
194,158482839,-22.042992,-7.387059,137.774063,0.059723,2.250289,-0.137482,3.739988,-28.983334,18.129507
195,158499506,-22.113092,-7.688979,138.033768,0.426461,2.666050,-0.370223,-3.162791,-22.814800,7.398185
196,158516173,-22.085926,-7.919885,138.115738,0.013606,3.253039,-0.663376,1.304001,-14.886574,-0.801985
197,158532840,-21.872597,-8.037149,138.021317,-0.911641,3.619194,-1.659810,11.026896,-4.634595,-7.937664
198,158549507,-21.413498,-8.040133,137.864288,-1.171642,3.616001,-1.382585,25.249348,3.074358,-8.836839
199,158566174,-20.801291,-7.950387,137.705383,-0.765371,3.429614,-0.285233,34.433250,8.233388,-6.963471
200,158582841,-20.135344,-7.777710,137.504196,-0.293419,3.317607,0.075568,37.338531,13.706874,-7.670868
201,158599508,-19.659853,-7.587072,137.199875,-0.821338,3.618396,0.006104,25.129759,16.741030,-13.212732
202,158616175,-19.359516,-7.327845,136.853256,-0.593178,4.583767,-0.030508,14.369979,21.383257,-14.328993
203,158632842,-19.129335,-7.075349,136.434570,-0.061245,4.886508,0.429358,9.719994,22.365204,-18.621325
204,158649509,-18.884867,-6.853530,135.906204,0.190962,5.081707,0.629958,9.894595,22.690565,-25.500425
205,158666176,-18.601099,-6.669671,135.294937,-0.041483,4.936320,0.591096,11.790597,22.018534,-31.024748
206,158682843,-18.346014,-6.537754,134.618774,-0.340219,4.268582,0.305682,9.733790,20.157549,-35.793568
207,158699510,-18.256226,-6.454928,133.919403,-0.640010,3.730485,0.067251,-0.256602,17.701258,-38.099319
208,158716177,-18.385725,-6.435434,133.226959,-0.696317,3.310027,0.023477,-13.322740,13.988719,-38.897331
209,158732844,-18.614773,-6.440706,132.598450,-0.628054,3.076343,-0.120148,-18.854164,11.501014,-35.709103
210,158749511,-18.836199,-6.481205,132.025589,-0.478285,2.584671,-0.320901,-18.031143,8.582599,-33.196362
211,158766178,-19.016481,-6.565184,131.488220,-0.477724,2.235152,-0.595373,-15.353502,5.550560,-32.005146
212,158782845,-19.166880,-6.654096,131.033356,-0.541125,1.954920,-0.688970,-13.035384,3.759092,-27.431101
213,158799512,-19.322018,-6.728951,130.644775,-0.457423,1.746566,-0.827802,-12.892453,3.331344,-23.409708
214,158816179,-19.483454,-6.799438,130.298843,-0.335885,1.641006,-0.814959,-12.996244,2.802721,-20.910830
215,158832846,-19.595573,-6.838408,130.016907,-0.349649,1.360485,-0.648789,-9.599076,3.363676,-16.675915
216,158849513,-19.682034,-6.855275,129.808517,-0.347325,0.812868,-0.525747,-7.539846,3.172731,-12.096426
217,158866180,-19.789558,-6.866312,129.667099,-0.310050,0.451398,-0.442616,-8.325848,2.177253,-8.215086
218,158882847,-19.930088,-6.874430,129.600220,-0.156538,0.402881,-0.552155,-9.773145,0.852897,-3.974132
219,158899514,-20.050993,-6.877305,129.591003,0.201866,0.544313,-0.641925,-8.181186,-0.014919,-0.638653
220,158916181,-20.118820,-6.885675,129.601852,0.451687,0.701844,-0.652383,-4.851135,-0.733778,0.373081
221,158932848,-20.120632,-6.893569,129.601746,0.384341,0.771888,-0.578927,-0.966444,-0.481442,-0.231641
222,158949515,-20.097473,-6.888763,129.588364,0.343656,0.714735,-0.513227,0.438611,0.506805,-0.711124
223,158966182,-20.122244,-6.874876,129.568756,0.138113,0.460486,-0.407471,-2.479386,1.147366,-0.872548
224,158982849,-20.222858,-6.862093,129.553680,0.239211,0.422091,-0.500264,-6.996648,0.993485,-0.639460
225,158999516,-20.313604,-6.857060,129.547592,0.330224,0.544279,-0.639823,-6.338351,0.373542,-0.297274
226,159016183,-20.320408,-6.862418,129.546494,0.283787,0.521819,-0.652438,-1.263987,-0.313487,-0.234459
227,159032850,-20.271441,-6.874808,129.554611,-0.054466,0.475841,-0.501982,2.149872,-0.899390,0.135869
228,159049517,-20.225262,-6.886222,129.579117,-0.186532,0.407963,-0.248864,2.100606,-1.180592,1.072154
229,159066184,-20.239363,-6.892684,129.618820,-0.163381,0.463768,-0.281541,-1.405868,-1.213184,2.024114
230,159082851,-20.288620,-6.913351,129.650726,0.187923,0.809604,-0.572901,-3.570372,-1.851196,1.292001
231,159099518,-20.295124,-6.934728,129.677475,0.375001,1.131777,-0.642493,-1.039901,-1.784386,0.990936
232,159116185,-20.236120,-6.951015,129.682693,0.365387,1.312408,-0.638771,2.737671,-1.050838,-0.106306
233,159132852,-20.150738,-6.954095,129.676086,0.161217,1.477449,-0.559182,4.237576,-0.061355,-0.492724
234,159149519,-20.096628,-6.943932,129.663239,-0.004335,1.483029,-0.445260,2.319595,0.815195,-0.566579
235,159166186,-20.113071,-6.923316,129.642334,-0.151887,1.687322,-0.400518,-1.969732,1.572677,-0.802190
236,159182853,-20.185783,-6.881530,129.618454,-0.217728,1.990499,-0.394438,-5.363440,2.830927,-0.527878
237,159199520,-20.299757,-6.824073,129.579956,-0.319057,2.343067,-0.403749,-7.938991,4.020407,-1.014109
238,159216187,-20.436878,-6.751868,129.525543,-0.156698,2.916649,-0.357730,-9.435326,5.188885,-1.585734
239,159232854,-20.581347,-6.646205,129.441635,0.062713,3.471853,-0.349161,-10.072276,7.695858,-2.512364
240,159249521,-20.714022,-6.503345,129.339737,0.124781,3.844875,-0.240866,-9.471044,10.177295,-2.710196
241,159266188,-20.838215,-6.302037,129.224609,-0.041920,3.902735,0.057722,-9.024873,13.752117,-2.181307
242,159282855,-21.045853,-6.060208,129.108780,-0.297226,3.600543,0.512138,-14.002214,16.053890,-1.309361
243,159299522,-21.382170,-5.805311,128.999405,-0.490541,3.453592,0.684079,-21.647385,16.662584,-0.592577
244,159316189,-21.822031,-5.535770,128.891006,-0.664662,3.870437,0.422813,-27.819263,17.471149,-0.100774
245,159332856,-22.276192,-5.232310,128.795670,-0.747155,4.282009,0.085685,-28.566713,19.075768,1.524147
246,159349523,-22.625183,-4.863196,128.722641,-0.735293,4.389164,0.176696,-22.099087,22.208920,4.394111
247,159366190,-22.822975,-4.404261,128.659943,-0.717788,4.221974,0.257711,-12.940284,26.931635,7.155988
248,159382857,-22.922638,-3.875142,128.587585,-0.835141,3.676409,0.138282,-7.056107,31.029806,8.330990
249,159399524,-23.165455,-3.264632,128.465759,-1.410626,3.308643,-0.505712,-15.782814,36.668453,7.612452
250,159416191,-23.730347,-2.552091,128.242081,-1.972056,3.058019,-0.886744,-35.093258,43.252571,7.892289
251,159432858,-24.503426,-1.750423,127.945374,-1.394598,3.251154,-1.111575,-47.618908,49.848728,6.571427
252,159449525,-25.268869,-0.870171,127.581184,-0.670397,3.440936,-1.212141,-47.026497,55.580650,5.910184
253,159466192,-25.829969,0.089644,127.171089,-0.071472,3.425711,-1.537271,-34.495144,61.036301,6.087880
254,159482859,-26.128414,1.122239,126.669441,0.068890,3.337889,-1.738319,-18.314047,67.343842,3.499645
255,159499526,-26.447092,2.232235,126.033974,-0.917804,1.868933,-2.070874,-18.795843,75.055717,-1.277217
256,159516193,-26.999378,3.399234,125.232010,-1.092156,1.092252,-2.150167,-31.641029,82.613159,-8.075039
257,159532860,-27.843752,4.584954,124.247276,-0.586897,1.256197,-2.302324,-47.486496,88.808983,-16.370893
258,159549527,-28.830942,5.781813,123.082962,0.016246,1.617174,-2.384964,-53.902660,94.906487,-24.360968
259,159566194,-29.723919,7.051910,121.737534,0.606349,1.700799,-2.465227,-45.626499,104.256721,-29.789021
260,159582861,-30.487383,8.439349,120.245293,0.978835,1.116705,-2.577605,-34.865345,115.131378,-32.258022
261,159599528,-31.230989,9.889305,118.635605,1.180600,0.429566,-2.552855,-29.997929,123.758545,-37.136002
262,159616195,-31.969110,11.332623,116.803505,1.763475,0.104770,-2.254266,-24.813356,130.540878,-46.554321
263,159632862,-32.638046,12.780295,114.701141,2.577425,-0.075966,-2.309712,-14.559978,139.503143,-57.749023
264,159649529,-33.218346,14.245149,112.278282,3.021551,-1.004557,-2.224049,-1.625170,150.762772,-70.763016
265,159666196,-33.839359,15.732897,109.523666,2.985464,-2.679176,-1.661428,4.708331,162.745270,-83.681419
266,159682863,-34.647701,17.142023,106.473640,2.725967,-5.258288,-0.280758,2.503394,168.795837,-97.421646
267,159699530,-35.631714,18.311686,103.233177,2.610234,-7.272837,1.412086,-0.628379,164.104874,-110.954643
268,159716197,-36.536762,19.108730,99.975830,2.396443,-8.668138,2.411319,7.590055,147.780197,-121.340660
269,159732864,-37.027302,19.665745,97.005623,1.089147,-8.689102,1.761050,28.908882,127.514595,-114.548492
270,159749531,-36.966850,20.100451,94.680397,-1.654434,-8.582556,1.370067,50.244843,99.855057,-89.021980
271,159766198,-36.490479,20.402439,93.287422,-3.256166,-7.513405,1.749784,56.668056,61.471466,-51.963123
272,159782865,-35.869591,20.520441,92.788101,-1.947731,-6.298406,0.913739,46.870365,22.327053,-18.450075
273,159799532,-35.295074,20.532074,92.926414,0.039729,-4.857651,-0.877283,30.699471,-3.925954,6.738194
274,159816199,-34.796917,20.570599,93.383072,0.728418,-4.003068,-0.966225,19.409966,-12.824041,22.332283
275,159832866,-34.527790,20.590740,93.858505,0.928283,-3.152629,-0.383999,5.259882,-14.191250,22.647644
276,159849533,-34.449913,20.611513,94.181763,0.966971,-1.934214,-0.666749,-3.007383,-9.257964,15.658566
277,159866200,-34.535286,20.727362,94.365143,1.052124,-1.171902,-0.384130,-9.860117,-0.113759,12.408628
278,159882867,-34.664864,20.890377,94.462616,2.017421,-0.751280,0.413456,-10.701917,4.929597,10.039591
279,159899534,-34.648537,21.055943,94.515648,2.366471,-0.439656,0.494405,-1.003660,6.460812,8.079984
280,159916201,-34.448273,21.233774,94.590958,1.516411,-0.484694,-0.191815,9.547570,6.373155,9.511559
281,159932868,-34.316990,21.390644,94.664444,0.392234,-0.820830,-0.529304,5.441555,5.421039,8.693690
282,159949535,-34.409924,21.499889,94.730843,0.653513,-0.694531,-0.218239,-7.864997,3.287448,6.749160
283,159966202,-34.620556,21.583511,94.776215,1.309894,-0.313796,0.120402,-14.467549,2.666828,4.916304
284,159982869,-34.749645,21.675152,94.802811,1.554894,0.049949,0.318683,-9.160744,3.642377,4.336892
285,159999536,-34.784763,21.769341,94.795189,1.064362,-0.173237,0.273942,-2.760204,4.847569,2.863340
286,160016203,-34.816368,21.860382,94.776054,1.022921,-0.408578,0.264373,-2.289379,5.055468,2.233050
287,160032870,-34.846588,21.934776,94.748741,0.930734,-0.480984,0.358022,-2.017538,4.493165,1.291591
288,160049537,-34.824852,21.968658,94.720284,1.022134,-0.562412,0.481475,1.127657,2.530669,-0.147388
289,160066204,-34.726044,21.954292,94.690697,0.973775,-0.468790,0.306385,5.780217,0.185788,-1.852861
290,160082871,-34.628231,21.918900,94.651924,0.670419,-0.521455,-0.082716,5.929539,-0.565234,-2.991909
291,160099538,-34.606838,21.874094,94.610306,0.426878,-0.561023,-0.136197,1.408474,-0.943892,-3.443884
292,160116205,-34.646553,21.806849,94.598381,0.306654,-0.646323,-0.080713,-2.922998,-2.993779,-2.849426
293,160132872,-34.673458,21.730211,94.659637,0.348884,-0.731599,-0.109817,-3.782420,-5.775153,0.181895
294,160149539,-34.649975,21.637413,94.787437,0.770789,-0.718030,0.016988,-2.228306,-8.686294,2.681029
295,160166206,-34.524380,21.523914,94.989166,0.666227,-0.917628,0.272745,2.280076,-12.053485,5.387589
296,160182873,-34.341053,21.351742,95.282509,0.491296,-1.345272,0.510746,3.766333,-17.843676,7.655717
297,160199540,-34.109772,21.090357,95.733383,0.037312,-1.977926,0.564533,3.286164,-27.214756,12.011671
298,160216207,-33.798683,20.765852,96.460663,-0.217445,-2.665757,-0.304947,2.276736,-38.985443,22.911383
299,160232874,-33.453918,20.421494,97.510551,-0.260565,-2.858260,-0.756039,-2.273748,-49.935234,37.630116
300,160249541,-33.226017,20.035192,98.758682,-0.037984,-2.458525,-0.161038,-13.023574,-58.068909,45.929893
301,160266208,-33.180088,19.605272,100.101654,-0.238895,-2.600419,0.499846,-25.371073,-63.186852,49.260319
302,160282875,-33.300705,19.093353,101.555870,0.214788,-3.316453,1.045341,-36.954060,-70.915649,51.969135
303,160299542,-33.326393,18.487591,103.227341,0.667214,-4.190997,0.967266,-34.656158,-82.626877,59.323860
304,160316209,-33.090870,17.788002,105.121910,0.781862,-4.027352,0.615477,-22.070530,-94.404457,67.328171
305,160332876,-32.569939,17.039925,107.175659,0.344541,-3.408899,0.113240,-6.442864,-101.592407,74.388649
306,160349543,-32.030899,16.267397,109.316833,-0.048445,-3.924580,0.056173,-5.300712,-105.090027,79.184570
307,160366210,-31.693335,15.441603,111.563416,0.085653,-4.698351,0.563393,-17.404583,-110.682381,83.883698
308,160382877,-31.529650,14.524722,113.865250,0.882184,-4.813895,0.864369,-26.726860,-116.944290,84.683319
309,160399544,-31.385571,13.508443,116.164963,1.674685,-3.960653,0.538832,-25.623894,-122.055588,82.265503
310,160416211,-31.102049,12.453918,118.459785,1.707267,-2.819207,-0.266922,-14.776189,-123.876045,81.775299
311,160432878,-30.595966,11.483422,120.790054,1.440121,-2.202523,-1.076105,0.506281,-120.325409,87.441147
312,160449545,-29.954256,10.600860,123.163834,1.078478,-2.061675,-1.051978,10.349598,-116.414291,93.898132
313,160466212,-29.316092,9.787909,125.514343,0.820279,-1.835614,-0.735073,12.447175,-111.247292,96.396469
314,160482879,-28.863749,9.012278,127.780235,0.608306,-1.590513,-0.856572,4.048561,-106.098228,94.446091
315,160499546,-28.635439,8.333803,129.941803,0.623711,-1.538516,-1.481376,-7.026410,-98.555878,94.474983
316,160516213,-28.537935,7.744372,132.149994,0.963587,-1.707096,-1.386786,-13.817641,-94.973175,99.828278
317,160532880,-28.307585,7.202400,134.360764,1.159288,-1.201159,-1.007689,-4.558455,-92.329971,101.715385
318,160549547,-27.959135,6.663515,136.499039,0.764574,-0.595396,-1.185675,4.316030,-89.635979,98.488281
319,160566214,-27.750385,6.132730,138.469742,0.450025,0.690841,-1.474170,-1.746778,-84.135162,90.459129
320,160582881,-27.755259,5.661450,140.286179,-0.071869,1.338743,-1.534622,-12.561264,-76.516739,84.107384
321,160599548,-27.800133,5.290288,141.944885,-0.009664,1.929305,-1.175018,-13.242910,-66.829590,78.512321
322,160616215,-27.852589,4.957784,143.422089,-0.155492,2.101948,-1.015580,-12.106941,-59.801197,69.995491
323,160632882,-27.987671,4.628710,144.699768,-0.185512,2.831548,-0.940206,-15.441570,-53.437393,58.124378
324,160649549,-28.175146,4.265268,145.769821,-0.264171,3.467381,-0.904280,-17.154768,-49.584782,46.082546
325,160666216,-28.252117,3.911870,146.693375,-0.008332,4.462561,-1.068134,-9.491366,-45.021942,38.558674
326,160682883,-28.056831,3.537094,147.423248,0.320482,5.494138,-1.342029,7.959568,-40.643608,27.801128
327,160699550,-27.558161,3.132004,147.973557,0.371762,6.185629,-0.841134,27.100584,-37.065643,17.707037
328,160716217,-26.942806,2.733152,148.346497,0.074987,6.142380,-0.116115,34.893787,-31.688093,8.805210
329,160732884,-26.384840,2.380420,148.431564,0.812852,5.232068,-0.286057,32.384605,-21.372837,-5.037225
330,160749551,-26.041735,1.924151,148.218201,0.268861,5.569696,-0.746634,20.218857,-19.073738,-23.662287
331,160766218,-25.683416,1.482619,147.810135,-0.083004,5.339024,-0.978119,21.394581,-13.317687,-33.665234
332,160782885,-25.349680,1.064244,147.258942,-0.757755,4.216223,-1.030491,19.942640,-8.555449,-40.734077
333,160799552,-25.121210,0.680263,146.659531,-0.959929,3.296771,-0.552125,13.449829,-5.642850,-42.427826
334,160816219,-25.069263,0.328787,146.068359,-0.755608,2.974419,-0.202951,2.631010,-4.179199,-41.138329
335,160832886,-25.133978,0.018929,145.511078,-0.684555,2.936382,-0.276488,-4.570597,-2.766391,-38.236965
336,160849553,-25.213972,-0.230819,144.981155,-0.729939,2.585611,-0.719275,-5.642080,-0.144456,-35.216209
337,160866220,-25.282860,-0.416955,144.485718,-0.802154,2.225954,-0.938184,-5.078876,2.479171,-31.715130
338,160882887,-25.362764,-0.538041,144.056976,-0.897417,1.779385,-0.701198,-5.781929,4.343471,-26.421556
339,160899554,-25.466103,-0.587711,143.705994,-0.832045,1.455751,-0.747823,-7.178124,6.260439,-20.359211
340,160916221,-25.581017,-0.593872,143.424026,-0.602669,1.678804,-0.803201,-7.837624,6.876115,-15.483151
341,160932888,-25.632473,-0.547691,143.216187,-0.443386,1.500905,-0.607084,-3.978205,7.814151,-10.103473
342,160949555,-25.654301,-0.454168,143.066116,-0.394296,1.105807,-0.469969,-2.152044,8.885553,-5.741793
343,160966222,-25.729635,-0.344272,142.946106,-0.463141,0.903276,-0.508982,-5.332374,8.997482,-3.682147
344,160982889,-25.837458,-0.221465,142.862869,-0.387430,0.717824,-0.403090,-7.254492,8.744210,-1.342452
345,160999556,-25.912878,-0.103868,142.819901,-0.196634,0.605628,-0.300841,-5.293018,7.413526,0.709389
346,161016223,-25.937723,-0.018647,142.806641,-0.033264,0.618799,-0.334272,-2.251023,4.888126,1.471443
347,161032890,-25.944769,0.046329,142.820068,-0.057450,0.654539,-0.508790,-1.181693,3.096351,2.381962
348,161049557,-25.945210,0.113686,142.868912,-0.139762,0.508526,-0.538764,-0.787808,2.296044,4.357021
349,161066224,-25.983517,0.159317,142.912598,-0.022772,0.615544,-0.470484,-3.061768,1.259690,3.508831
350,161082891,-26.044918,0.183851,142.946960,0.129487,0.677411,-0.199304,-4.446814,0.365589,2.452589
351,161099558,-26.093338,0.199749,142.977066,0.097073,0.647140,-0.186657,-3.665024,0.011404,1.995748
352,161116225,-26.138870,0.189210,143.008560,0.077552,0.545928,-0.381845,-3.491626,-1.450716,1.374102
353,161132892,-26.186600,0.161256,143.056870,-0.045350,0.384805,-0.348739,-3.624466,-2.832841,1.816523
354,161149559,-26.243816,0.120819,143.122986,-0.054605,0.331584,-0.286816,-4.194516,-3.978318,2.443663
355,161166226,-26.299604,0.068065,143.192520,-0.027645,0.320060,-0.283446,-4.104550,-4.733048,2.295724
356,161182893,-26.339170,0.018493,143.268555,-0.018835,0.401966,-0.393676,-3.128848,-4.736340,2.726581
357,161199560,-26.344999,-0.015845,143.354233,0.058900,0.501895,-0.545469,-1.100475,-4.173987,3.648932
358,161216227,-26.326433,-0.017067,143.459305,-0.078062,0.452609,-0.573562,0.366473,-2.907810,5.572651
359,161232894,-26.306086,0.015025,143.586685,-0.029404,0.253860,-0.416062,0.472305,-1.707381,7.661163
360,161249561,-26.314579,0.059748,143.725616,-0.037385,0.204219,-0.445930,-1.264051,-1.333692,8.617695
361,161266228,-26.316385,0.123807,143.872086,0.048583,0.408225,-0.520126,-0.872023,-0.495772,9.539855
362,161282895,-26.292383,0.199701,144.016525,0.119629,0.538489,-0.558026,0.667627,0.198172,9.743132
363,161299562,-26.251404,0.292621,144.157104,0.177976,0.554901,-0.437951,1.675436,1.222091,9.989360
364,161316229,-26.257624,0.382639,144.281860,0.215216,0.537230,-0.329731,-1.163406,1.489565,9.060091
365,161332896,-26.307936,0.453501,144.367615,0.299137,0.759557,-0.316970,-3.800964,1.490461,6.454754
366,161349563,-26.351570,0.490938,144.403778,0.396405,0.991189,-0.412354,-3.378354,1.008468,2.899518
367,161366230,-26.359552,0.495600,144.388336,0.341422,1.310684,-0.538308,-1.210341,0.620999,-0.747955
368,161382897,-26.326170,0.474774,144.319962,0.332229,1.631792,-0.478025,1.302246,0.660545,-4.269804
369,161399564,-26.272537,0.446544,144.202866,0.257748,1.847880,-0.407984,2.542989,1.557208,-7.088034
370,161416231,-26.238567,0.409329,144.017319,0.320821,2.271682,-0.544073,1.394375,2.888441,-11.009034
371,161432898,-26.204094,0.367814,143.727325,0.443402,3.243541,-0.765725,1.466783,5.423809,-16.744844
372,161449565,-26.176123,0.350942,143.310623,0.545187,4.349853,-0.795826,1.123651,10.102881,-22.914415
373,161466232,-26.222712,0.390413,142.739685,0.639569,5.072645,-0.541994,-3.273573,17.233828,-29.719629
374,161482899,-26.372480,0.509324,142.010864,0.642205,5.555357,-0.060424,-9.328738,25.764355,-36.065159
375,161499566,-26.651844,0.729265,141.123474,0.456204,5.719911,0.081120,-16.857704,35.581490,-41.768417
376,161516233,-27.073685,1.023739,140.069702,0.225224,5.813666,-0.021610,-25.000261,44.347065,-48.423328
377,161532900,-27.499893,1.379361,138.895279,0.126615,5.667181,0.028834,-24.739424,51.294167,-52.829239
378,161549567,-27.731192,1.816233,137.668259,0.027193,5.340999,-0.195489,-12.458189,57.387627,-53.050129
379,161566234,-27.820032,2.344032,136.420166,-0.605606,4.516623,-0.473122,-3.236829,62.956203,-51.436794
380,161582901,-27.954021,2.955138,135.177002,-1.357387,3.327129,-0.702576,-5.211094,67.335487,-48.677547
381,161599568,-28.347979,3.609858,133.874039,-1.941076,2.466700,-0.854832,-19.940451,69.975700,-47.192406
382,161616235,-28.994778,4.281797,132.549255,-1.995594,2.350355,-1.068629,-34.163746,71.911957,-47.125000
383,161632902,-29.690403,4.962263,131.198288,-1.592584,2.457303,-1.525207,-36.071056,73.706024,-47.420044
384,161649569,-30.363289,5.677850,129.827789,-1.280592,2.382480,-2.238615,-33.658634,76.664520,-46.440578
385,161666236,-31.058237,6.459513,128.506210,-1.416828,1.896511,-2.535254,-34.273998,79.084015,-40.875744
386,161682903,-31.758631,7.344813,127.268845,-1.655423,1.338506,-2.181071,-34.102757,82.289116,-32.398628
387,161699570,-32.364338,8.267293,126.008934,-1.310116,1.234326,-1.722038,-27.138960,85.170883,-31.250505
388,161716237,-32.837139,9.133774,124.673698,-0.936109,1.411586,-1.235061,-17.358728,85.012337,-35.963295
389,161732904,-33.213604,9.983001,123.264305,-0.701020,1.674974,-1.084742,-9.687882,86.785057,-39.535637
390,161749571,-33.567829,10.889063,121.742096,-0.192677,1.902577,-1.501619,-5.896161,93.460953,-42.514233
391,161766238,-33.981483,11.835427,120.150528,0.254427,1.553671,-1.789091,-6.689975,99.421265,-46.104416
392,161782905,-34.383194,12.784478,118.376663,0.802069,1.127345,-1.708731,-2.100986,105.707451,-53.871788
393,161799572,-34.633335,13.719700,116.364853,1.507117,0.888670,-1.600388,11.964242,112.985809,-64.867439
394,161816239,-34.739525,14.650399,114.070061,2.072351,0.280859,-1.417917,26.664427,122.069046,-77.818390
395,161832906,-34.856346,15.637095,111.475594,1.809288,-0.913682,-1.401884,32.945435,134.551025,-89.434311
396,161849573,-35.268623,16.690998,108.605652,1.949778,-3.026794,-0.835783,22.482927,146.952698,-98.878075
397,161866240,-36.080742,17.667940,105.419090,2.455663,-5.518194,-0.088247,7.020540,154.316406,-114.030853
398,161882907,-37.135727,18.420059,102.033646,2.680551,-7.889788,0.641209,-1.115229,151.561737,-127.959236
399,161899574,-38.011570,18.973696,98.690308,2.462520,-8.795095,1.322355,11.004888,142.339615,-130.184937
400,161916241,-38.514961,19.377865,95.644188,0.536428,-9.319433,1.665304,29.062323,126.070557,-120.378532
401,161932908,-38.629192,19.686621,93.252762,-1.985591,-9.060179,2.142519,40.334564,98.908066,-94.046379
402,161949575,-38.387463,19.944714,91.854095,-2.485298,-7.385344,1.471893,42.153141,61.366894,-52.032444
403,161966242,-38.025215,20.126318,91.377090,-0.886184,-5.543494,-0.323972,30.732378,25.270411,-14.303349
404,161982909,-37.751507,20.301191,91.496529,0.424468,-3.953266,-0.573132,13.132740,4.213019,11.825109
405,161999576,-37.836926,20.461935,91.877998,-0.071468,-3.659795,0.533274,-13.907298,-5.476906,22.930809
406,162016243,-38.367298,20.541145,92.267990,0.193051,-3.211879,0.676291,-40.826935,-9.745246,20.238152
407,162032910,-39.061085,20.569706,92.570435,1.580204,-2.102181,0.327374,-48.809013,-9.261920,14.382925
408,162049577,-39.613346,20.606655,92.760605,3.026888,-0.769766,0.312041,-37.948814,-5.034408,9.715545
409,162066244,-39.763062,20.678690,92.879150,2.591101,-0.350098,1.262794,-12.285627,-0.911147,7.934455
410,162082911,-39.577198,20.743732,92.982323,1.526657,-0.657789,1.068141,8.175659,-0.681311,7.000728
411,162099578,-39.321808,20.768072,93.107597,0.815838,-0.678090,-0.160843,11.878185,-3.330101,6.407386
412,162116245,-39.194366,20.786753,93.255226,0.659649,-0.283885,-0.941985,3.725618,-4.367402,7.172499
413,162132912,-39.266937,20.814762,93.374969,0.508143,-0.111661,-0.415443,-7.682302,-2.942605,6.316088
414,162149579,-39.513123,20.831028,93.431038,0.590426,-0.180198,0.358396,-16.742666,-1.238926,3.100145
415,162166246,-39.798443,20.826208,93.438553,0.797944,-0.364403,0.401936,-18.052837,-0.490368,0.190002
416,162182913,-40.003757,20.827311,93.434174,1.181483,-0.378254,0.073109,-12.996942,0.206855,-0.095202
417,162199580,-40.042850,20.830793,93.429031,1.386114,-0.508423,-0.104998,-3.003806,0.342166,-0.035871
418,162216247,-39.934059,20.830261,93.416084,1.024606,-0.681979,-0.190240,6.037611,0.434590,-0.525547
419,162232914,-39.769531,20.828583,93.416466,0.544191,-0.970357,-0.218131,9.102788,-0.100120,0.001863
420,162249581,-39.653038,20.795593,93.452072,0.267224,-1.184423,-0.037610,5.470073,-2.810341,0.319218
421,162266248,-39.577881,20.737507,93.543121,0.489525,-1.097061,-0.100187,1.813872,-5.956605,1.756871
422,162282915,-39.468124,20.676758,93.700447,0.801522,-1.025268,-0.166803,2.489421,-8.449504,4.533712
423,162299582,-39.279068,20.597176,93.945435,0.745512,-1.394272,0.186276,5.406647,-12.440112,7.644519
424,162316249,-39.019199,20.473917,94.337158,0.359145,-1.858020,0.535330,6.593830,-19.657545,12.436266
425,162332916,-38.733158,20.305868,94.979469,-0.515942,-2.414785,0.542476,2.982031,-30.554554,21.825285
426,162349583,-38.531605,20.088436,95.923615,-1.006725,-2.731262,0.740431,-8.219011,-43.421959,33.410721
427,162366250,-38.419453,19.801331,97.192070,-0.803608,-3.304227,1.059052,-19.991007,-58.044834,45.306797
428,162382917,-38.327000,19.419338,98.783493,-0.247535,-3.848025,1.277061,-27.261446,-73.861900,56.294407
429,162399584,-38.142651,18.911940,100.645599,0.464420,-3.984308,1.295346,-26.384920,-89.293465,64.049034
430,162416251,-37.793545,18.308277,102.699753,0.848659,-3.838590,1.050212,-19.152044,-100.492775,69.783096
431,162432918,-37.340954,17.631645,104.830055,0.830067,-3.252079,1.103692,-13.049077,-106.399101,71.591728
432,162449585,-36.877655,16.890116,106.966423,0.723153,-3.155374,1.287298,-11.008168,-109.437401,70.738586
433,162466252,-36.416000,16.096165,109.121101,0.859781,-3.573169,1.105763,-9.777093,-112.322388,70.975922
434,162482919,-35.895901,15.251749,111.320618,1.020289,-4.012544,0.580102,-5.225170,-115.996544,72.642174
435,162499586,-35.312363,14.356003,113.572632,1.081674,-3.720397,0.349490,-0.297679,-119.888779,74.856804
436,162516253,-34.722515,13.422761,115.881302,0.740806,-3.170581,0.215820,1.347950,-123.170166,77.918373
437,162532920,-34.273453,12.491801,118.192902,0.102303,-2.604702,-0.224432,-4.951053,-122.747856,79.668816
438,162549587,-33.984097,11.609543,120.497253,0.322184,-2.279304,-0.472903,-12.307196,-119.848427,82.130196
439,162566254,-33.838211,10.730723,122.780304,0.752512,-2.276459,-0.300026,-18.595364,-118.911064,82.006599
440,162582921,-33.773121,9.823658,125.045425,1.127320,-2.180070,0.003624,-21.159868,-119.806740,80.725380
441,162599588,-33.640171,8.925522,127.321915,1.405337,-1.803190,-0.114336,-15.098922,-119.804932,82.086166
442,162616255,-33.415428,8.107221,129.603287,1.240266,-1.351516,-0.970721,-7.816082,-116.649895,86.807259
443,162632922,-33.188705,7.358287,131.861526,0.824165,-0.647068,-1.601765,-5.645933,-112.230690,88.626984
444,162649589,-33.071877,6.615939,134.046265,0.281324,-0.250574,-1.225119,-9.932092,-109.333923,85.644417
445,162666256,-33.086674,5.877416,136.143875,-0.088155,-0.619331,-1.077656,-15.561328,-106.312912,81.635422
446,162682923,-33.159180,5.216186,138.169250,0.252075,-0.826701,-1.461382,-17.061220,-100.189476,80.554756
447,162699590,-33.320702,4.618757,140.156433,0.580254,-0.541356,-1.789573,-20.866175,-95.938477,80.588661
448,162716257,-33.590015,4.020475,142.063141,0.254727,0.100067,-2.343992,-25.720194,-93.675858,76.247429
449,162732924,-33.987988,3.401898,143.902374,-0.076449,0.935086,-2.117042,-31.902790,-92.298317,70.742050
450,162749591,-34.403381,2.808025,145.698090,-0.119626,1.034582,-1.465093,-31.644772,-90.142822,68.820328
451,162766258,-34.575474,2.352057,147.511139,0.339428,1.420219,-1.584219,-16.113066,-84.287773,73.940796
452,162782925,-34.334282,1.983912,149.275375,0.528198,3.328813,-2.099380,9.572933,-78.258293,74.587082
453,162799592,-33.821461,1.614617,150.903763,-0.547927,3.858675,-3.310917,26.811934,-73.266701,68.337387
454,162816259,-33.238289,1.527163,152.529846,-1.721329,5.388247,-3.517490,31.429338,-58.436798,78.275467
455,162832926,-32.386585,1.475153,153.875809,1.105394,4.676877,-3.092602,48.109737,-46.547848,66.041603
456,162849593,-31.576883,1.503747,155.122635,-0.526151,7.406685,-1.338733,45.773609,-38.330555,64.231216
457,162866260,-30.655945,1.640635,156.146179,0.729380,7.968781,-0.182206,52.726452,-24.858458,56.698189
458,162882927,-30.022270,1.753874,156.813919,0.061290,6.654998,-0.089006,36.013527,-14.522448,37.899162
459,162899594,-29.777710,1.845054,157.027496,-0.547403,5.890829,-0.410048,13.471688,-1.792456,13.742133
460,162916261,-29.954802,1.934263,156.855103,-0.251277,5.589763,-0.159470,-11.066130,9.649254,-6.382075
461,162932928,-30.335873,1.928243,156.336853,0.469743,5.807161,0.523363,-22.579298,15.163353,-27.133209
462,162949595,-30.639679,1.793661,155.553497,0.377569,4.719463,0.695182,-17.446415,16.751902,-44.650120
463,162966262,-30.888496,1.572454,154.661819,-0.237512,2.818700,0.386093,-14.086200,15.834523,-52.809860
464,162982929,-31.166836,1.314095,153.808365,-0.834255,1.125755,0.097629,-16.129377,12.995687,-51.922379
465,162999596,-31.455399,1.062170,153.080276,-1.205684,0.415801,-0.114598,-17.124002,9.683252,-45.233196
466,163016263,-31.699245,0.823343,152.518997,-1.228335,0.401441,-0.331780,-14.794321,5.329936,-36.250504
467,163032930,-31.848999,0.620953,152.132980,-1.190494,0.550164,-0.500534,-9.412731,1.782322,-26.140215
468,163049597,-31.882107,0.462819,151.912537,-1.071244,0.613017,-0.538470,-2.581596,-1.158937,-16.298042
469,163066264,-31.879580,0.353915,151.810135,-1.096247,0.666601,-0.649182,-0.525329,-2.382110,-8.722664
470,163082931,-31.980568,0.315730,151.782898,-0.894326,0.580966,-0.716207,-6.770397,-1.154518,-2.650492
471,163099598,-32.194733,0.336174,151.774216,-0.291158,0.988633,-0.695981,-13.567747,1.245361,0.160573
472,163116265,-32.391712,0.384716,151.751114,0.183392,1.309009,-0.652744,-12.530046,3.134477,0.335405
473,163132932,-32.462044,0.429864,151.696014,0.383317,1.127063,-0.639453,-4.912940,3.992290,-1.384341
474,163149599,-32.478462,0.441876,151.622665,0.262686,0.713059,-0.507451,-1.664698,2.905511,-3.372950
475,163166266,-32.519226,0.437089,151.529099,0.155817,0.416819,-0.405038,-3.113429,2.709574,-4.935364
476,163182933,-32.609192,0.416313,151.425461,0.158104,0.336038,-0.284964,-6.061925,2.232499,-5.957143
477,163199600,-32.679417,0.367037,151.308273,0.294962,0.615119,-0.378763,-4.874084,1.240327,-7.561049
478,163216267,-32.670517,0.287743,151.190781,0.264801,0.837072,-0.461175,-0.133801,-0.261454,-8.547382
479,163232934,-32.555752,0.193372,151.080261,0.050472,0.607153,-0.523846,6.207503,-1.257046,-8.681506
480,163249601,-32.422512,0.094910,150.981827,-0.261390,0.341408,-0.448678,7.305339,-1.870201,-8.199460
481,163266268,-32.363228,0.029189,150.909058,-0.419464,0.113993,-0.520292,2.857167,-1.048494,-5.842898
482,163282935,-32.372181,-0.007647,150.866913,-0.233637,0.439494,-0.572007,-1.241320,-0.569306,-3.361769
483,163299602,-32.320900,-0.025465,150.856369,-0.154490,0.763633,-0.669282,2.371205,-0.619430,-1.148153
484,163316269,-32.195583,-0.023850,150.874542,-0.280915,0.564791,-0.641044,6.815496,-0.552812,0.932731
485,163332936,-32.087357,-0.022695,150.916504,-0.295620,0.452091,-0.476175,5.790565,-1.331733,2.128345
486,163349603,-32.016209,-0.012612,150.981262,-0.300339,0.685508,-0.406687,3.566408,-1.599091,3.575335
487,163366270,-31.937767,-0.008473,151.060715,-0.143982,1.036843,-0.413010,4.004463,-2.362016,4.137213
488,163382937,-31.814396,-0.024969,151.137024,-0.099913,1.380358,-0.422736,6.702659,-3.304347,3.328608
489,163399604,-31.683247,-0.060895,151.205200,-0.252022,1.618869,-0.408854,7.174215,-4.029109,2.308671
490,163416271,-31.591190,-0.108049,151.254730,-0.414808,1.972475,-0.397399,4.833136,-4.008132,1.012745
491,163432938,-31.536057,-0.145979,151.274719,-0.505006,2.582320,-0.438313,2.620878,-2.602379,-0.201636
492,163449605,-31.505569,-0.156609,151.239639,-0.398011,3.586406,-0.489452,1.139567,0.526002,-2.155475
493,163466272,-31.474936,-0.119876,151.105179,-0.326829,4.803178,-0.567759,1.143140,6.069987,-5.752511
494,163482939,-31.502308,0.004779,150.832184,-0.533786,5.404422,-0.532238,-2.320782,14.918678,-10.079338
495,163499606,-31.645159,0.261054,150.398834,-0.739785,5.581152,-0.387656,-9.159031,26.710161,-14.112238
496,163516273,-31.946339,0.657535,149.811096,-0.893618,5.612700,-0.221667,-18.422152,38.806988,-17.440971
497,163532940,-32.420193,1.171522,149.085373,-0.935018,5.461623,-0.276508,-28.356750,49.310276,-20.415466
498,163549607,-33.004002,1.752855,148.212433,-0.939313,5.525040,-0.510472,-34.300156,57.676147,-25.186798
499,163566274,-33.600586,2.390572,147.181549,-0.965336,5.463293,-0.764184,-34.156372,65.962570,-30.621563
500,163582941,-34.138119,3.089648,146.007523,-1.107147,5.047832,-0.980364,-29.470703,74.096870,-35.000595
501,163599608,-34.538998,3.878014,144.756287,-1.278059,4.418841,-0.984348,-20.070454,81.398346,-35.134052
502,163616275,-34.833035,4.797952,143.420212,-1.461628,3.988657,-1.210271,-12.153727,90.958542,-34.243008
503,163632942,-35.203671,5.836467,141.984360,-1.481656,3.142273,-1.397869,-14.827890,100.348923,-34.405285
504,163649609,-35.832603,6.922202,140.403778,-1.342309,2.219399,-1.563088,-27.770281,107.882874,-38.761032
505,163666276,-36.792057,7.994328,138.614319,-1.184629,1.807730,-1.568545,-44.542450,113.417511,-45.271034
506,163682943,-37.984623,9.043061,136.649826,-0.809986,1.957217,-1.345989,-55.057503,119.312195,-52.045319
507,163699610,-39.233147,10.057240,134.502762,-0.155714,1.793319,-1.025658,-54.578487,125.257492,-58.871826
508,163716277,-40.364391,11.035991,132.191284,0.449278,1.509385,-0.889403,-43.572674,130.856918,-64.846146
509,163732944,-41.271587,11.998527,129.721832,1.181773,1.558689,-1.202191,-26.017738,136.959213,-69.722122
510,163749611,-42.003216,12.937679,127.104805,1.697425,1.017737,-1.823143,-11.228765,142.305634,-74.755051
511,163766278,-42.664043,13.847169,124.314636,1.941693,0.541639,-2.059282,-1.495348,150.155289,-83.432587
512,163782945,-43.262016,14.726984,121.284821,2.387598,-0.409554,-1.397067,8.352498,158.833710,-92.723869
513,163799612,-43.847813,15.482135,117.919449,2.966416,-1.041054,-0.596345,16.828751,167.306213,-109.837700
514,163816279,-44.370037,16.085974,114.242485,3.166695,-1.605357,0.243006,28.023232,173.922440,-126.987968
515,163832946,-44.828426,16.550026,110.317955,3.633250,-3.821384,0.848708,37.988735,178.643951,-141.126083
516,163849613,-45.290043,16.828047,106.247368,3.470147,-7.690662,0.514045,41.762039,177.525314,-153.214539
517,163866280,-45.747353,16.868044,102.255417,2.096889,-10.062452,0.497459,41.284706,165.373901,-158.683167
518,163882947,-45.943176,16.770031,98.724098,-0.350626,-11.139082,1.277770,48.836971,141.540253,-145.296814
519,163899614,-45.606056,16.740873,96.131371,-2.866152,-9.435637,1.444559,64.327545,105.631111,-104.977165
520,163916281,-44.864285,16.860609,94.794281,-2.902420,-6.847270,0.992425,66.929482,59.680595,-48.835938
521,163932948,-44.280472,17.075626,94.400314,-0.550328,-5.436168,-0.402576,41.150928,25.138964,-6.926641
522,163949615,-44.198284,17.298195,94.532692,0.616856,-4.901536,0.153201,1.805293,4.342220,14.864155
523,163966282,-44.503105,17.492603,94.846107,1.606251,-3.749403,0.568935,-24.688339,-4.148479,21.083998
524,163982949,-44.927464,17.587809,95.043770,3.159499,-2.125603,0.850979,-29.807796,-3.855736,12.146477
525,163999616,-45.222164,17.604063,95.031288,3.397655,-0.907892,1.161887,-18.217848,1.226510,0.274805
526,164016283,-45.255478,17.631033,94.886490,3.323517,-0.333668,1.205900,-0.121212,7.045408,-4.593472
527,164032950,-44.975723,17.647608,94.708115,2.384392,-0.559621,1.003365,19.288015,7.953083,-6.403634
528,164049617,-44.514118,17.632528,94.584259,1.744776,-0.903716,-0.004787,29.214701,4.364667,-5.578898
529,164066284,-44.096558,17.575836,94.520531,0.729594,-0.625449,-0.798981,25.480570,0.129082,-4.896635
530,164082951,-43.942982,17.507862,94.501213,-0.163104,-0.548305,-0.677331,8.838261,-2.147895,-3.543582
531,164099618,-44.098667,17.408875,94.470177,0.012499,-0.392134,-0.304337,-9.510371,-3.020712,-5.321989
532,164116285,-44.340591,17.288546,94.400093,0.847134,-0.098353,-0.080081,-13.988362,-2.359457,-7.830757
533,164132952,-44.378857,17.196844,94.306778,1.079987,-0.028686,-0.184266,-1.362557,-0.182247,-7.588288
534,164149619,-44.184822,17.166414,94.227104,0.452281,-0.107653,-0.455353,12.331903,1.894874,-4.463465
535,164166286,-43.933010,17.170610,94.192734,-0.291498,-0.335202,-0.532302,14.994757,1.564009,-1.159795
536,164182953,-43.764908,17.202623,94.221519,-0.664519,-0.589505,-0.551963,8.853089,0.254494,2.599594
537,164199620,-43.707180,17.218552,94.292961,-0.363077,-0.656398,-0.262268,1.469702,-2.128851,3.695945
538,164216287,-43.679558,17.171259,94.394753,-0.094425,-0.723866,0.071563,-0.876582,-6.073118,2.332273
539,164232954,-43.547237,17.088173,94.559448,0.300295,-0.744685,0.042196,4.299241,-10.116393,3.470349
540,164249621,-43.243145,16.981113,94.823425,0.433767,-0.943274,-0.131109,12.877836,-15.065796,6.659228
541,164266288,-42.758289,16.851337,95.192078,0.395641,-1.051215,-0.277179,21.928280,-20.124441,10.232404
542,164282955,-42.128799,16.733831,95.716156,-0.048141,-1.439778,-0.452576,27.959446,-25.518984,17.518045
543,164299622,-41.476841,16.608421,96.436295,-0.632726,-1.871531,-0.019008,25.995403,-33.204346,25.895742
544,164316289,-40.828743,16.421633,97.368225,-0.713154,-2.284124,0.510102,22.263401,-43.725056,33.039024
545,164332956,-40.147518,16.155199,98.529274,-0.434796,-2.278750,0.620842,20.602558,-55.589245,40.515980
546,164349623,-39.364269,15.825521,99.926720,-0.204275,-2.314506,0.332244,23.162241,-66.775620,49.348038
547,164366290,-38.596272,15.441905,101.537048,-0.519362,-2.399163,0.203517,19.305628,-76.451256,57.874897
548,164382957,-37.997509,15.002422,103.290138,-0.921709,-2.420593,0.337741,7.569289,-83.630898,63.328300
549,164399624,-37.675575,14.504631,105.149498,-0.949215,-2.650410,0.695543,-9.836278,-89.807808,66.887505
550,164416291,-37.556744,13.911783,107.115273,-0.432487,-3.202415,0.995831,-22.566778,-98.016769,68.855873
551,164432958,-37.435425,13.225570,109.230186,0.580513,-3.548839,0.704704,-23.242674,-107.812584,72.792580
552,164449625,-37.129417,12.478719,111.506485,1.275614,-3.349631,0.325585,-12.775716,-116.384460,78.778328
553,164466292,-36.604431,11.709637,113.900948,0.833027,-2.627729,0.143632,0.637338,-121.282127,84.666847
554,164482959,-36.106491,10.946319,116.310364,-0.007903,-2.236679,0.027035,0.715540,-121.005981,86.963554
555,164499626,-35.947468,10.210517,118.699020,-0.392556,-2.254293,0.134003,-17.536358,-118.669403,87.918190
556,164516293,-36.140736,9.480714,121.061455,0.291108,-2.100192,0.424203,-36.606022,-117.691261,87.095467
557,164532960,-36.455696,8.690611,123.410110,1.074213,-1.878346,0.554083,-41.927578,-120.699348,84.014946
558,164549627,-36.607815,7.862172,125.759750,1.641714,-1.349215,0.139361,-30.205507,-123.109711,82.433838
559,164566294,-36.537704,7.024442,128.054092,1.495889,-0.396032,-0.414792,-14.580620,-122.579384,80.691772
560,164582961,-36.353504,6.203407,130.276733,0.771789,0.372062,-0.671369,-5.236623,-119.171036,78.260651
561,164599628,-36.144390,5.412576,132.454391,0.129002,-0.005005,-0.607614,-1.580015,-115.939674,77.683655
562,164616295,-36.037998,4.631906,134.580414,0.313624,-0.387266,-0.320312,-5.673189,-113.511040,75.994286
563,164632962,-35.951912,3.881404,136.685257,0.546422,-0.385502,-0.371543,-5.082641,-111.222954,76.278885
564,164649629,-35.915657,3.129003,138.727463,0.712232,-0.139845,-0.811019,-6.175074,-109.071175,73.335503
565,164666296,-35.973003,2.379749,140.759827,0.080203,-0.554230,-1.598144,-10.144794,-108.602516,72.961281
566,164682963,-36.125999,1.656671,142.765625,-0.207505,0.177566,-1.949517,-14.235589,-106.004875,71.604736
567,164699630,-36.274750,0.962928,144.758591,-0.349870,0.822396,-1.352578,-12.482089,-104.343674,71.778305
568,164716297,-36.350903,0.353019,146.773697,-0.460402,0.845286,-1.021345,-6.784830,-101.228867,75.640076
569,164732964,-36.370647,-0.137861,148.826843,-0.412958,0.693933,-1.191494,-2.248538,-96.898582,81.636086
570,164749631,-36.429756,-0.586079,150.843765,-0.308182,1.537403,-1.454969,-3.617555,-93.600311,81.336037
571,164766298,-36.420551,-1.024019,152.850861,-0.392300,3.061366,-1.683697,1.406859,-92.782059,81.182411
572,164782965,-36.123814,-1.249140,154.955154,-1.478036,4.346888,-1.824629,19.471926,-85.708076,93.677132
573,164799632,-35.461304,-1.309348,156.936096,0.431180,4.348032,-2.211053,41.572075,-72.556229,94.177788
574,164816299,-34.860142,-1.530210,158.705185,-0.564419,5.711004,-1.746920,37.878609,-72.066734,79.027931
575,164832966,-34.274403,-1.577973,160.324081,-0.259538,6.670112,-0.401374,36.971966,-57.570400,78.243851
576,164849633,-33.907673,-1.614297,161.593735,0.135664,5.941210,-0.532657,23.339846,-44.601185,61.761227
577,164866300,-33.677391,-1.715362,162.406296,-0.029101,7.000410,-0.213206,14.465756,-32.251923,37.048969
578,164882967,-33.407940,-1.878345,162.701508,0.218772,6.959025,-0.383822,15.977103,-18.033932,9.278358
579,164899634,-33.400475,-2.019079,162.593094,0.174752,5.438034,-0.818843,-0.496451,-3.564764,-10.144887
580,164916301,-33.657074,-2.125163,162.210464,0.442826,4.509201,-0.597968,-16.928802,7.278966,-22.707764
581,164932968,-33.916122,-2.197039,161.662338,0.104234,2.496012,-0.519691,-17.471775,14.609319,-29.776163
582,164949635,-34.084003,-2.233371,161.082932,-0.246742,0.954157,-0.598651,-12.097409,17.540371,-30.080105
583,164966302,-34.184849,-2.230811,160.558594,-0.567173,0.096643,-0.855601,-7.953990,17.693417,-25.994694
584,164982969,-34.255924,-2.189833,160.155975,-0.739890,-0.078282,-0.922693,-5.875105,15.538189,-18.636185
585,164999636,-34.214458,-2.109818,159.892960,-0.862892,0.024728,-0.762769,1.215343,12.773240,-10.391890
586,165016303,-34.032131,-2.007025,159.750031,-0.900817,-0.015082,-0.554421,9.948627,9.849018,-3.688295
587,165032970,-33.826893,-1.887980,159.684326,-0.856226,-0.189033,-0.333592,11.495749,8.063234,0.668012
588,165049637,-33.742054,-1.761805,159.672012,-0.669137,-0.133262,-0.159848,4.379882,6.643226,3.547059
589,165066304,-33.775730,-1.616883,159.689484,-0.422752,0.334398,-0.111203,-2.679038,6.588670,5.656534
590,165082971,-33.861664,-1.482354,159.714066,-0.164847,0.558274,-0.064841,-5.806055,5.828831,5.672005
591,165099638,-33.898422,-1.372557,159.729218,0.050200,0.689053,-0.020265,-2.871734,4.906773,4.383197
592,165116305,-33.883327,-1.307838,159.732986,0.101847,0.427198,0.031709,0.223016,3.042206,2.310016
593,165132972,-33.916080,-1.267214,159.726349,0.041225,0.008154,-0.095463,-2.659559,2.191288,0.985186
594,165149639,-34.039928,-1.262629,159.705292,0.169909,0.301313,-0.237268,-8.146300,0.879931,-0.936631
595,165166306,-34.130146,-1.279315,159.666214,0.128560,0.733408,-0.310594,-6.150583,0.430428,-2.545211
596,165182973,-34.113445,-1.301078,159.618790,0.143082,0.643073,-0.265942,0.252099,0.461445,-3.129718
597,165199640,-34.065956,-1.340593,159.561783,0.075059,0.470371,-0.337539,2.087032,-0.099377,-4.202673
598,165216307,-34.043106,-1.379843,159.497482,-0.258902,0.469868,-0.482347,0.597589,0.157332,-4.556423
599,165232974,-34.052685,-1.399128,159.426636,-0.355389,0.472697,-0.683015,-1.360150,1.370657,-4.209396
600,165249641,-34.092514,-1.395742,159.356125,-0.230170,0.427547,-0.630160,-3.174233,2.489804,-3.429118
601,165266308,-34.159523,-1.371932,159.303543,-0.194235,0.247409,-0.439761,-4.778280,2.905281,-1.847508
602,165282975,-34.199448,-1.335288,159.268997,-0.162467,0.340901,-0.367949,-3.125582,2.937425,-0.516224
603,165299642,-34.160580,-1.298693,159.252121,-0.159143,0.402222,-0.540825,1.626451,2.341058,0.358661
604,165316309,-34.071957,-1.258160,159.243942,-0.244236,0.465029,-0.689276,4.625469,2.245306,0.921769
605,165332976,-34.010952,-1.201576,159.244995,-0.254772,0.382224,-0.614186,2.980197,2.735712,1.918180
606,165349643,-33.994755,-1.140572,159.257996,-0.148405,0.446495,-0.353625,0.306923,2.556576,2.660359
607,165366310,-33.968971,-1.099311,159.259338,-0.048801,0.741337,-0.220573,0.868213,1.967638,1.417669
608,165382977,-33.880424,-1.092676,159.250992,-0.032495,0.962898,-0.222590,4.624444,0.570798,-0.225341
609,165399644,-33.759979,-1.108500,159.226898,-0.216369,0.956126,-0.306795,6.521295,-0.021784,-1.760540
610,165416311,-33.696785,-1.131987,159.184814,-0.334004,1.078202,-0.361945,3.067729,0.194407,-2.912241
611,165432978,-33.740803,-1.174193,159.110809,-0.300107,1.303905,-0.195624,-3.403326,0.325480,-5.127060
612,165449645,-33.873135,-1.259854,158.975189,-0.090708,1.829296,0.178631,-8.781970,0.225616,-9.645849
613,165466312,-34.058903,-1.417630,158.736603,0.102414,2.653510,0.422119,-12.144792,0.117607,-17.182611
614,165482979,-34.273613,-1.658700,158.342499,0.177408,3.796773,0.351233,-14.174027,1.285064,-27.704123
615,165499646,-34.472351,-1.967275,157.756683,0.221025,4.735101,0.310248,-13.681685,4.537593,-39.469273
616,165516313,-34.648739,-2.314208,156.947357,0.215046,5.155516,0.250284,-13.027432,10.378097,-51.786007
617,165532980,-34.899509,-2.674488,155.871277,0.085122,5.061132,0.131373,-18.469818,19.036606,-65.322662
618,165549647,-35.331070,-3.034713,154.528488,-0.214536,5.188472,-0.001002,-30.505558,28.623852,-78.259407
619,165566314,-35.888763,-3.348766,152.958527,-0.505923,5.588880,-0.212532,-39.291573,39.474216,-87.431503
620,165582981,-36.418285,-3.567832,151.189453,-0.760224,6.081552,-0.597180,-38.746361,51.940300,-93.288445
621,165599648,-36.782879,-3.613502,149.265640,-1.024352,6.229619,-1.033617,-29.663515,66.552864,-94.091423
622,165616315,-36.968262,-3.409070,147.203491,-1.175097,5.813159,-1.370569,-19.250702,84.004471,-91.387077
623,165632982,-37.026230,-2.947075,145.010193,-1.113242,5.277836,-1.508712,-11.315636,101.312836,-88.201202
624,165649649,-37.070736,-2.292476,142.709991,-1.199188,4.641407,-1.555398,-9.516514,114.532623,-86.296448
625,165666316,-37.186420,-1.502504,140.266647,-1.372638,4.387090,-1.627433,-12.331901,126.368462,-88.113434
626,165682983,-37.340576,-0.621621,137.607010,-1.311277,5.112305,-1.979032,-12.747618,138.824982,-94.864929
627,165699650,-37.403759,0.394433,134.666489,-0.717574,5.680324,-2.638793,-4.685869,155.713455,-103.071976
628,165716317,-37.283878,1.626468,131.401566,-0.019947,5.060461,-3.125161,10.094331,177.771439,-110.718742
629,165732984,-37.039394,3.083704,127.718666,1.011010,3.617563,-3.211648,23.058531,201.497147,-120.403488
630,165749651,-36.821823,4.713481,123.611374,2.318717,1.680418,-2.958308,29.070200,224.845886,-135.735504
631,165766318,-36.705555,6.490744,119.090111,3.695187,-1.081821,-2.609874,32.681667,246.266373,-150.835373
632,165782985,-36.777020,8.371567,114.211845,4.424879,-4.648741,-2.122764,32.883499,263.984894,-164.460571
633,165799652,-37.226620,10.123569,109.092300,3.774553,-9.747017,-0.730822,21.764662,266.623596,-178.660568
634,165816319,-38.144848,11.382736,103.889069,1.673533,-14.490502,1.615908,2.520145,247.489838,-196.332474
635,165832986,-39.211353,11.984874,99.001900,-1.285236,-16.245701,3.371726,-5.280529,207.848663,-201.388474
636,165849653,-39.815063,12.212894,95.078148,-4.328745,-12.920602,1.626353,12.390353,157.185745,-168.703369
637,165866320,-39.493343,12.474035,92.803444,-6.270357,-8.347676,-0.053885,47.698452,97.290756,-92.499123
638,165882987,-38.471909,12.840003,92.192505,-2.585795,-5.312076,-0.177002,68.509789,39.698368,-13.861319
639,165899654,-37.483086,13.184134,92.529015,2.427755,-3.621998,-0.825052,53.966179,4.288923,28.321966
640,165916321,-36.646236,13.529334,93.302338,2.675101,-3.072047,-0.467785,38.684738,-10.574747,48.607811
641,165932988,-36.306408,13.829224,94.034721,0.846556,-2.662989,-0.107596,9.202556,-10.817966,45.123493
642,165949655,-36.528248,13.968049,94.367607,0.625843,-1.454114,0.782838,-18.897936,-4.719460,20.635704
643,165966322,-37.167786,14.013797,94.233574,1.585844,-0.098449,0.519917,-37.216438,6.956656,-4.511366
644,165982989,-37.847710,14.154789,93.929970,1.990539,0.025194,1.423911,-37.144119,17.548141,-8.777871
645,165999656,-38.165924,14.368177,93.687653,1.972789,-0.164906,2.323185,-16.289137,18.839777,-3.127062
646,166016323,-38.169228,14.544749,93.565018,2.094020,-0.694546,1.396813,0.867906,12.807246,1.036425
647,166032990,-37.919605,14.625575,93.582359,1.588115,-0.782461,0.206374,13.950626,3.270110,3.871599
648,166049657,-37.663086,14.662651,93.707565,0.109566,-0.678788,-0.527106,12.732882,-2.627980,7.196732
649,166066324,-37.724083,14.641612,93.854065,-0.575547,-0.709923,-0.528898,-6.641644,-6.133041,6.044478
650,166082991,-38.141323,14.575130,93.942001,0.024891,-0.447844,-0.259380,-27.124836,-6.222277,1.660406
651,166099658,-38.617764,14.510470,93.942009,1.149389,-0.270768,0.259586,-29.347670,-2.981635,-2.323796
652,166116325,-38.895206,14.452098,93.907669,1.261435,-0.267033,0.569551,-16.888302,-1.424439,-3.663606
653,166132992,-38.930031,14.404316,93.912636,0.426073,-0.379340,0.332100,-2.916813,-2.356164,-1.491786
654,166149659,-38.883263,14.362865,94.018356,-0.144152,-0.710856,-0.033833,0.477875,-5.739985,3.302201
655,166166326,-38.859238,14.282608,94.160240,0.500037,-0.583201,-0.111235,-1.417125,-8.872931,3.480209
656,166182993,-38.763844,14.186958,94.342323,0.508539,-0.653169,-0.008837,2.285185,-11.059402,4.733197
657,166199660,-38.603245,14.037040,94.567558,0.082588,-0.905934,0.106247,5.592648,-15.164948,4.683651
658,166216327,-38.405704,13.829245,94.898277,-0.592019,-1.298201,0.047411,6.324998,-21.702555,7.382485
659,166232994,-38.230118,13.567253,95.343285,-0.223976,-1.314924,-0.297358,3.461523,-28.375969,10.674237
660,166249661,-37.969582,13.295452,95.874641,0.836258,-0.875833,-0.705194,7.475299,-31.929844,14.404051
661,166266328,-37.517315,13.045143,96.387611,1.340924,-0.310731,-0.650610,19.373028,-30.187794,14.566192
662,166282995,-36.893299,12.803410,96.883034,0.682725,-0.858084,-0.011242,30.049824,-29.038315,14.363335
663,166299662,-36.258526,12.500344,97.388954,-0.038329,-1.517454,0.490212,30.695608,-32.223824,13.005631
664,166316329,-35.708218,12.122048,97.985062,-0.348006,-1.914824,0.045166,24.651178,-38.873497,14.989694
665,166332996,-35.282307,11.746393,98.769142,-0.467947,-1.878609,-0.645057,15.084282,-45.056789,24.430233
666,166349663,-34.963634,11.395010,99.772820,-0.690680,-1.606547,-0.548028,6.296080,-51.174290,36.162212
667,166366330,-34.719650,11.040219,100.993408,-1.025013,-2.194314,-0.182967,-0.354103,-58.503773,46.827122
668,166382997,-34.611240,10.646666,102.445015,-1.244602,-2.929109,0.101033,-10.630413,-68.075012,56.949577
669,166399664,-34.689274,10.179307,104.145943,-1.385923,-4.025674,0.244838,-23.884073,-80.146042,66.644470
670,166416331,-34.902065,9.637370,106.092834,-0.743520,-4.508225,0.092706,-33.628281,-92.386215,75.943321
671,166432998,-35.122368,9.026927,108.227501,-0.046966,-3.867959,-0.051767,-34.755802,-102.544701,82.491005
672,166449665,-35.262360,8.382813,110.464394,0.140158,-3.065428,0.011311,-29.486235,-108.088104,86.127617
673,166466332,-35.367405,7.738087,112.765953,-0.071346,-3.052413,0.003512,-26.443689,-110.659447,89.179405
674,166482999,-35.529537,7.100831,115.140312,0.032668,-3.202907,-0.085773,-28.907362,-113.143578,92.868523
675,166499666,-35.747700,6.458200,117.620941,0.429999,-3.464480,-0.005689,-31.449814,-117.527489,97.602280
676,166516333,-35.856159,5.796728,120.185120,1.261504,-2.997547,0.035595,-23.802437,-122.124916,101.355255
677,166533000,-35.660637,5.102983,122.806541,1.275210,-2.016934,-0.147947,-4.119907,-125.972214,103.598045
678,166549667,-35.216522,4.439364,125.424675,0.356091,-1.230381,-0.784487,12.665293,-123.978233,105.421494
679,166566334,-34.852154,3.833202,128.026871,-0.850852,-1.538251,-0.741078,9.694537,-119.955391,107.615845
680,166583001,-34.873611,3.235956,130.627594,-1.190776,-2.130811,-0.267930,-11.807068,-119.241638,108.346413
681,166599668,-35.294777,2.609290,133.233032,-0.792825,-2.249421,0.036785,-34.131458,-121.308548,107.152206
682,166616335,-35.934071,1.933241,135.846466,-0.188145,-1.769894,-0.164316,-45.457355,-125.054359,104.785141
683,166633002,-36.593781,1.208630,138.469467,0.035408,-1.763490,-0.895694,-44.771503,-128.920380,102.084518
684,166649669,-37.249607,0.413198,141.097305,0.323402,-1.192384,-1.716836,-42.449799,-132.983139,97.278267
685,166666336,-37.872124,-0.411280,143.801651,-0.110455,-0.359778,-1.738464,-38.229599,-138.249222,98.375526
686,166683003,-38.340176,-1.202720,146.593033,0.018101,1.426975,-0.903876,-26.609743,-140.831314,102.376610
687,166699670,-38.321270,-1.898230,149.423706,0.528708,4.193274,-0.453689,4.835283,-138.147110,107.209648
688,166716337,-37.431309,-2.375646,152.271423,0.187414,8.711114,0.136153,58.869823,-127.553200,117.103004
689,166733004,-35.597878,-2.688944,154.795731,2.641288,9.553274,-1.229129,115.813492,-105.248894,110.352203
690,166749671,-33.726894,-3.163857,156.872253,-0.294569,9.836394,-2.109644,117.772110,-94.306526,86.071854
691,166766338,-32.262741,-3.437715,158.598572,-0.042624,9.994706,-1.191206,93.001060,-70.182259,77.721603
692,166783005,-31.494959,-3.705356,159.883362,0.180745,8.489169,-1.042953,50.094151,-54.346191,56.797459
693,166799672,-31.262821,-4.005105,160.498383,-0.269648,6.334181,-0.329454,15.663514,-34.593323,22.017118
694,166816339,-31.586491,-4.292998,160.487991,0.096560,5.488031,-0.197860,-20.189642,-14.475295,-9.584756
695,166833006,-32.150169,-4.544759,160.063934,0.302230,5.471229,-0.260406,-36.486660,0.512085,-29.562569
696,166849673,-32.629574,-4.736764,159.400665,0.078388,3.702032,-0.721361,-32.671494,11.477104,-39.708328
697,166866340,-32.973568,-4.908684,158.655487,-0.202620,1.714428,-0.699993,-25.073151,15.428412,-43.074993
698,166883007,-33.149803,-4.993159,157.999268,-0.847436,-0.259540,-0.731088,-14.642975,17.120615,-35.676716
699,166899674,-33.319881,-4.991896,157.514709,-1.189632,-1.076761,-0.965263,-13.407439,15.910149,-24.218779
700,166916341,-33.442753,-4.912213,157.237885,-1.325010,-0.743535,-1.081582,-9.485357,13.072965,-11.219479
701,166933008,-33.468117,-4.761606,157.145004,-1.359775,-0.505933,-0.995310,-2.677553,10.578618,0.320114
702,166949675,-33.424107,-4.566063,157.176285,-1.044867,0.034341,-0.687669,2.102759,8.740191,8.001213
703,166966342,-33.349403,-4.371885,157.285080,-0.705011,0.462480,-0.393919,4.300676,6.130846,11.820915
704,166983009,-33.261494,-4.182440,157.410324,-0.543042,0.629664,-0.288033,5.142028,5.370942,12.482915
705,166999676,-33.223881,-4.019586,157.519852,-0.279972,0.464131,-0.178123,2.035103,4.566459,10.818933
706,167016343,-33.263809,-3.885967,157.598480,-0.068983,0.413195,-0.188784,-2.761908,4.113496,8.312611
707,167033010,-33.405373,-3.802292,157.639496,-0.042673,0.532444,-0.221217,-9.019387,2.833822,4.793284
708,167049677,-33.536102,-3.761332,157.652542,0.056564,0.677469,-0.177186,-8.481737,1.609073,1.989768
709,167066344,-33.583878,-3.771324,157.631622,0.061736,0.619780,-0.372608,-3.636479,0.183918,-1.392486
710,167083011,-33.575058,-3.807880,157.597794,-0.088392,0.480075,-0.518950,-0.292100,-0.716323,-2.915583
711,167099678,-33.568207,-3.852209,157.568085,-0.140697,0.230633,-0.522661,-0.394115,-1.240090,-2.968486
712,167116345,-33.610615,-3.888183,157.548798,-0.293977,0.221574,-0.518605,-3.308738,-1.166236,-2.170727
713,167133012,-33.661030,-3.903397,157.542435,-0.341429,0.369658,-0.468074,-3.737636,-0.555335,-0.835947
714,167149679,-33.646805,-3.906389,157.546600,-0.258794,0.487365,-0.405945,0.183893,-0.291652,0.094376
715,167166346,-33.586075,-3.899632,157.565140,-0.343950,0.467094,-0.367726,3.032447,-0.279947,1.136198
716,167183013,-33.551582,-3.882857,157.599625,-0.396263,0.332278,-0.436712,1.523898,-0.303818,2.264387
717,167199680,-33.543644,-3.852272,157.645447,-0.409937,0.489500,-0.545321,-0.024985,0.013351,3.289868
718,167216347,-33.533379,-3.825876,157.692459,-0.358168,0.526993,-0.507477,0.118888,-0.233562,3.212056
719,167233014,-33.501495,-3.819434,157.743179,-0.148768,0.423390,-0.219267,1.430002,-1.351518,2.736902
720,167249681,-33.445141,-3.849481,157.812805,-0.092655,0.307849,0.143279,2.975409,-3.799081,2.474962
721,167266348,-33.376354,-3.922810,157.898758,-0.275685,0.362365,0.150401,3.790648,-6.501759,1.865264
722,167283015,-33.362682,-4.020325,157.980423,-0.542935,0.512089,0.011871,0.474443,-7.569348,0.857033
723,167299682,-33.454239,-4.121450,158.070221,-0.478697,0.624336,0.101938,-5.795567,-8.016880,1.140220
724,167316349,-33.634491,-4.237271,158.172928,-0.395574,0.853237,0.176776,-11.050249,-9.178753,1.277927
725,167333016,-33.829044,-4.380434,158.254303,-0.281952,1.362642,0.039371,-11.989058,-9.835539,-0.724379
726,167349683,-33.957397,-4.563888,158.290527,-0.232461,1.845225,-0.135628,-8.211475,-10.330364,-4.342662
727,167366350,-34.044121,-4.761819,158.261581,-0.301258,2.277840,-0.415993,-6.018873,-8.859733,-8.077598
728,167383017,-34.139328,-4.960590,158.116287,-0.245118,3.319938,-0.762315,-7.119979,-4.985760,-13.877333
729,167399684,-34.218174,-5.137866,157.798477,-0.301246,4.638376,-0.960286,-7.067439,1.898897,-21.685081
730,167416351,-34.246876,-5.245031,157.285278,-0.403699,5.204559,-0.904100,-5.153152,11.971475,-28.961775
731,167433018,-34.261684,-5.243342,156.557434,-0.562593,5.259714,-0.879170,-5.509969,24.609045,-35.874615
732,167449685,-34.376972,-5.136207,155.600891,-0.689469,5.065440,-0.794297,-12.723519,37.592411,-43.560726
733,167466352,-34.695946,-4.936726,154.421967,-0.833785,4.926929,-0.861032,-25.951097,49.876915,-51.228748
734,167483019,-35.175697,-4.642712,153.033539,-0.782662,5.095380,-1.070211,-36.330441,62.084057,-57.911930
735,167499686,-35.674507,-4.242813,151.452667,-0.839913,5.225706,-1.144777,-37.854679,74.462776,-63.098743
736,167516353,-36.042530,-3.709332,149.711945,-0.965822,5.088073,-1.134788,-29.892582,87.086815,-65.627037
737,167533020,-36.181114,-2.989183,147.825272,-0.954153,4.751174,-1.214549,-15.492218,101.634018,-65.747116
738,167549687,-36.162277,-2.046638,145.806122,-0.602278,4.093309,-1.463463,-4.751904,117.224068,-64.227318
739,167566354,-36.171642,-0.959981,143.666016,-0.224197,2.937320,-1.677571,-4.487187,128.537704,-65.036430
740,167583021,-36.376682,0.189426,141.383469,-0.033712,2.097005,-1.684519,-13.781426,136.786011,-69.478012
741,167599688,-36.821316,1.364648,138.947235,0.106297,1.627293,-1.592215,-25.255949,143.920731,-75.157631
742,167616355,-37.477421,2.534202,136.335083,0.398518,1.335531,-1.395979,-34.600990,150.700058,-82.315308
743,167633022,-38.283993,3.685603,133.545944,0.856252,1.027546,-1.368944,-39.888733,157.310883,-89.300545
744,167649689,-39.162487,4.795620,130.518600,1.343328,0.931728,-1.190993,-40.079967,163.642059,-96.950897
745,167666356,-40.013401,5.879313,127.310791,1.819134,0.837417,-0.893430,-34.014671,170.678680,-103.708885
746,167683023,-40.760979,6.915784,123.864250,2.811551,0.729330,-0.519794,-22.688169,179.277695,-114.144890
747,167699690,-41.389458,7.913250,120.192017,3.069277,-0.387988,-0.423119,-10.140444,187.743668,-123.731544
748,167716357,-41.935802,8.883082,116.297783,3.328089,-2.204604,-0.057118,0.543577,196.645874,-132.935806
749,167733024,-42.366222,9.698598,112.187279,3.641419,-3.892994,0.584086,13.339689,199.803467,-147.374649
750,167749691,-42.520344,10.278139,107.875183,3.885785,-5.691293,1.285710,34.950634,197.803879,-164.328873
751,167766358,-42.315269,10.650460,103.518700,2.882104,-7.997604,1.403472,59.073521,190.058273,-174.461105
752,167783025,-41.688366,10.905819,99.347343,0.924525,-10.046178,0.711389,83.683029,176.085052,-172.244110
753,167799692,-40.787151,11.185882,95.693535,-2.898927,-10.223746,-0.397036,95.318787,154.635056,-150.539246
754,167816359,-39.896812,11.568931,93.043915,-6.897458,-8.374939,0.777418,84.005997,118.554207,-103.752518
755,167833026,-39.370686,11.951589,91.663193,-7.132188,-6.381545,1.517614,47.649734,69.546028,-47.677353
756,167849693,-39.676964,12.201660,91.314873,-3.864684,-4.478445,-1.516331,-14.831242,24.697353,-6.097915
757,167866360,-40.447407,12.478556,91.634094,-0.831515,-3.108401,-2.151316,-51.160503,0.778296,25.118322
758,167883027,-41.237076,12.735670,92.218193,0.635467,-2.712183,-0.665519,-55.872257,-10.601830,36.060642
759,167899694,-41.894211,12.821497,92.747742,1.897327,-1.760674,0.676208,-47.295498,-16.621346,26.693968
760,167916361,-42.354309,12.789652,93.065987,3.044122,-0.451092,1.205469,-32.669228,-13.828648,12.618526
761,167933028,-42.505959,12.793552,93.171417,2.973353,0.296761,1.175045,-11.321511,-3.917323,4.802787
762,167949695,-42.386356,12.850267,93.169991,1.780004,0.104951,0.985883,6.386073,2.639049,2.327893
763,167966362,-42.140804,12.893888,93.142067,1.016802,-0.211600,0.437730,14.301220,3.105004,0.645991
764,167983029,-41.840443,12.913180,93.133942,0.889221,-0.225068,0.119837,17.331024,1.248742,0.512376
765,167999696,-41.581894,12.910741,93.179581,0.376457,-0.394706,-0.353698,14.103662,-1.816889,1.986388
766,168016363,-41.505436,12.868971,93.266235,-0.107684,-0.528140,-0.584276,2.632672,-5.169834,2.221230
767,168033030,-41.591007,12.811699,93.362564,0.021924,-0.390653,-0.621745,-7.215190,-6.244071,2.025818
768,168049697,-41.772762,12.779613,93.484131,0.035735,-0.377279,-0.287793,-13.315372,-6.103178,4.117763
769,168066364,-41.961151,12.758627,93.633591,0.344722,-0.453944,-0.054578,-14.080669,-6.713184,5.758207
770,168083031,-42.078358,12.725224,93.800461,0.595174,-0.248181,0.056728,-10.035293,-7.966476,5.998172
771,168099698,-42.069378,12.710537,94.002144,0.466200,-0.214081,-0.182996,-2.917199,-8.505830,8.254882
772,168116365,-42.009521,12.688320,94.206329,0.351304,-0.200032,-0.224655,0.107208,-8.937082,8.066334
773,168133032,-41.961662,12.631081,94.409882,-0.069529,-0.421428,-0.023909,-0.593562,-10.467890,6.641178
774,168149699,-41.942207,12.531330,94.636574,-0.160110,-0.640499,0.087584,-2.584183,-13.271512,5.951429
775,168166366,-41.880547,12.387536,94.913101,0.164526,-0.712649,-0.021050,-0.669888,-17.190815,6.370916
776,168183033,-41.732128,12.234852,95.267250,0.034950,-0.654963,-0.333746,3.586483,-20.617556,9.442260
777,168199700,-41.545666,12.100224,95.746033,-0.556294,-0.904903,-0.384075,4.343819,-24.648649,15.692239
778,168216367,-41.446571,11.949817,96.387192,-1.163621,-1.495859,-0.197435,-2.858904,-31.644249,22.271109
779,168233034,-41.500168,11.742070,97.229820,-1.197755,-2.000076,-0.019897,-14.386886,-42.068150,28.881418
780,168249701,-41.648430,11.447865,98.306976,-0.621394,-2.429879,-0.012012,-22.682354,-55.182079,35.705551
781,168266368,-41.745201,11.103161,99.673058,-0.059695,-2.708874,-0.329988,-22.630703,-68.884163,46.312050
782,168283035,-41.713017,10.741873,101.322212,-0.230463,-2.725879,-0.373798,-17.617010,-80.825615,58.121113
783,168299702,-41.686863,10.334594,103.153282,-0.865109,-3.022518,-0.350975,-19.324631,-90.085815,64.422516
784,168316369,-41.869350,9.860118,105.101578,-0.964833,-3.466390,-0.138824,-32.246143,-97.901901,66.880997
785,168333036,-42.241280,9.322831,107.170029,-0.355763,-3.759226,0.079576,-43.800110,-105.910660,69.281082
786,168349703,-42.613693,8.754615,109.384018,0.454640,-3.803685,0.081527,-44.025757,-113.688225,73.838867
787,168366370,-42.781090,8.134318,111.710350,1.195611,-3.422959,-0.172499,-31.355555,-121.004547,76.225845
788,168383037,-42.674881,7.477758,114.139809,1.158336,-2.783290,-0.395710,-14.244740,-126.961510,79.338203
789,168399704,-42.386826,6.831870,116.660728,0.476003,-2.566221,-0.316016,-2.376855,-130.050201,84.368095
790,168416371,-42.109047,6.230233,119.233192,-0.129990,-2.346329,-0.209169,-1.715574,-129.873108,89.206711
791,168433038,-42.006485,5.658277,121.760132,-0.025362,-1.996567,-0.181593,-10.481257,-127.165009,89.683983
792,168449705,-42.083660,5.073654,124.248085,0.377424,-1.902964,0.275435,-19.530136,-126.341415,87.685616
793,168466372,-42.144993,4.478132,126.750954,0.932908,-2.177652,0.481672,-17.116743,-127.651207,87.882668
794,168483039,-42.060310,3.881239,129.296021,1.662534,-1.667454,0.138558,-6.979163,-129.506378,89.848259
795,168499706,-41.770977,3.251571,131.831924,1.676102,-0.471332,-0.555478,6.978132,-130.368973,88.599686
796,168516373,-41.319336,2.596466,134.265533,1.042874,0.467182,-1.363663,18.745588,-126.942581,83.914062
797,168533040,-40.920673,1.902352,136.564407,0.740157,0.405755,-0.893980,17.619322,-122.800560,77.261238
798,168549707,-40.610321,1.224946,138.813522,0.974111,0.108481,-0.364197,14.084323,-118.952789,75.559433
799,168566374,-40.172226,0.642303,141.079697,1.291905,0.432715,0.210604,23.213030,-114.813705,80.821793
800,168583041,-39.313370,0.161267,143.329926,1.631626,1.896393,0.444622,49.723358,-108.604179,85.286369
801,168599708,-37.857033,-0.282532,145.446762,0.986698,2.959329,-0.843990,86.654655,-100.125084,82.602875
802,168616375,-36.238354,-0.658303,147.400803,-0.413729,1.818402,-2.222679,97.231293,-88.726166,79.921516
803,168633042,-35.061897,-0.869386,149.370071,-1.825339,0.022530,-2.510666,71.315178,-79.245041,88.558311
804,168649709,-34.502079,-0.905015,151.277725,-2.232715,0.745850,-1.737726,34.511581,-67.133026,92.717598
805,168666376,-34.307949,-0.898447,153.097244,-1.151749,2.162862,-0.420071,12.514007,-61.436745,90.228058
806,168683043,-34.042919,-0.732193,154.905426,-0.415522,5.027152,0.257812,16.595261,-52.762722,95.300049
807,168699710,-33.433804,-0.655663,156.366257,0.920817,5.945017,-1.032926,36.772923,-44.929077,75.387947
808,168716377,-32.657570,-0.551332,157.648956,-1.249866,7.207040,-1.635239,46.567593,-36.784805,67.882225
809,168733044,-31.852861,-0.316911,158.688934,-0.440574,6.556287,-1.413245,47.960865,-21.461813,60.244583
810,168749711,-31.455601,-0.123867,159.325668,0.138192,5.727274,-0.352800,23.211678,-10.236231,38.574684
811,168766378,-31.380651,0.066822,159.493607,0.265528,6.177467,0.706401,3.750618,4.470066,14.544586
812,168783045,-31.454439,0.259861,159.256607,0.369183,5.041255,0.331065,-5.116656,17.261900,-6.110686
813,168799712,-31.624958,0.451318,158.754486,0.413982,3.531642,-0.205218,-10.755980,25.520218,-19.676203
814,168816379,-31.833248,0.609232,158.117203,0.052537,1.966571,-0.631028,-12.842593,28.141911,-27.542910
815,168833046,-32.044113,0.763882,157.488876,-0.348285,0.389801,-0.569304,-12.893982,27.794802,-27.082861
816,168849713,-32.196865,0.900587,156.954956,-0.683803,-0.526138,-0.428119,-9.393176,23.959642,-22.767221
817,168866380,-32.263599,1.015878,156.547501,-0.959171,-0.740959,-0.494237,-4.292326,18.871716,-16.985497
818,168883047,-32.211010,1.108932,156.278397,-0.924562,-0.407046,-0.514986,2.752426,13.320210,-10.672515
819,168899714,-32.076576,1.194305,156.118820,-0.940465,-0.000333,-0.626981,7.552236,9.418852,-5.373510
820,168916381,-32.003113,1.288864,156.024384,-0.875763,0.477767,-0.653308,3.822613,7.806952,-1.784975
821,168933048,-32.024788,1.391238,155.954865,-0.831832,0.627856,-0.487132,-1.912052,7.413770,-0.269087
822,168949715,-32.112068,1.491382,155.873825,-0.567247,0.777991,-0.297527,-5.823676,7.670884,-0.916090
823,168966382,-32.192604,1.564995,155.773041,-0.230129,0.732792,-0.163185,-5.378002,6.957108,-2.751906
824,168983049,-32.215927,1.606057,155.673462,-0.192221,0.647711,-0.373055,-1.939650,5.270268,-3.723639
825,168999716,-32.205467,1.632866,155.593750,-0.391578,0.536689,-0.737298,0.057251,3.913922,-3.170340
826,169016383,-32.213524,1.637519,155.554688,-0.394392,0.229188,-0.609091,-1.120978,1.491229,-1.814250
827,169033050,-32.265282,1.630468,155.539612,-0.382219,-0.001999,-0.291007,-3.785942,0.131937,-0.970158
828,169049717,-32.324856,1.595578,155.541031,-0.169506,0.331756,-0.176429,-4.283725,-1.806451,-1.025840
829,169066384,-32.291245,1.543760,155.550293,-0.176261,0.601474,-0.315099,1.294856,-2.915007,-1.171051
830,169083051,-32.181149,1.489768,155.561447,-0.236683,0.556022,-0.462926,5.882424,-3.086689,-1.139176
831,169099718,-32.092880,1.441400,155.581131,-0.300619,0.351061,-0.352952,4.561040,-3.072833,-0.521820
832,169116385,-32.088127,1.398836,155.612274,-0.252164,0.260237,-0.302619,-0.466164,-3.142396,0.249308
833,169133052,-32.127979,1.348054,155.644760,-0.229568,0.422790,-0.348003,-3.142973,-3.601889,0.054369
834,169149719,-32.120491,1.292863,155.672882,-0.209320,0.454262,-0.474693,-0.294123,-3.685783,-0.307711
835,169166386,-32.054226,1.241026,155.696213,-0.225580,0.451341,-0.561231,3.240833,-3.362423,-0.440602
836,169183053,-31.978605,1.192772,155.718445,-0.232990,0.332047,-0.456288,3.804299,-3.144100,-0.378274
837,169199720,-31.927242,1.172580,155.746124,-0.292613,0.365517,-0.569176,2.342864,-1.887887,0.793834
838,169216387,-31.892492,1.166688,155.785141,-0.323971,0.441360,-0.737739,1.333634,-1.516810,1.826666
839,169233054,-31.830639,1.157206,155.824524,-0.296302,0.592034,-0.797427,2.959823,-1.709161,1.734294
840,169249721,-31.667370,1.132576,155.863708,-0.188429,0.664532,-0.710636,9.046826,-2.470448,1.249561
841,169266388,-31.419899,1.093152,155.897202,-0.255577,0.621117,-0.703919,14.107851,-3.042842,0.504244
842,169283055,-31.169579,1.053608,155.926010,-0.358820,0.564714,-0.658299,14.286295,-2.899462,0.274716
843,169299722,-31.000225,1.019997,155.959106,-0.491260,0.568660,-0.556828,9.424663,-2.724743,0.690218
844,169316389,-30.952173,0.975137,155.994476,-0.468294,0.791939,-0.399592,2.146978,-3.369953,0.465581
845,169333056,-30.953382,0.899765,156.025894,-0.442790,1.206767,-0.154583,-0.801037,-4.815969,-0.675817
846,169349723,-30.916124,0.802352,156.028397,-0.310495,1.644095,0.010537,1.537306,-5.055627,-2.840782
847,169366390,-30.851109,0.667584,155.982162,-0.249675,2.113873,0.161518,3.246225,-5.477879,-6.493999
848,169383057,-30.847610,0.500358,155.848038,-0.208005,2.772075,0.394675,-0.393693,-4.445586,-12.014770
849,169399724,-31.017973,0.310817,155.584625,-0.312691,3.450054,0.534358,-10.787371,-1.584789,-19.359238
850,169416391,-31.369604,0.137423,155.149490,-0.533001,4.186749,0.433738,-21.662510,4.676279,-27.675440
851,169433058,-31.875008,0.007906,154.535278,-0.723337,4.704018,0.463323,-30.932230,12.766584,-35.402000
852,169449725,-32.528080,-0.073043,153.741760,-0.832062,4.851826,0.582282,-39.853210,21.334457,-42.815735
853,169466392,-33.309933,-0.117355,152.770767,-0.965044,5.035291,0.632854,-47.637981,29.511980,-50.279114
854,169483059,-34.183746,-0.128748,151.613174,-1.108972,5.311698,0.371249,-53.194836,38.110989,-58.050545
855,169499726,-35.062836,-0.117172,150.248093,-1.172809,5.855509,0.052705,-53.527859,47.216816,-66.910789
856,169516393,-35.802303,-0.073695,148.669022,-1.362480,6.290967,-0.395718,-45.121159,57.176289,-75.574562
857,169533060,-36.350414,0.131340,146.857697,-1.672678,6.092384,-1.176944,-33.417522,74.081047,-80.467262
858,169549727,-36.730499,0.567597,144.807266,-1.390389,5.275765,-1.994942,-22.633783,94.436119,-83.112442
859,169566394,-37.035484,1.186507,142.517868,-0.685344,4.171619,-2.655831,-16.773561,112.310181,-87.408089
860,169583061,-37.374382,1.882109,139.969116,-0.027690,3.289206,-2.792484,-16.818138,125.865211,-96.341896
861,169599728,-37.755825,2.618503,137.156219,0.594501,3.111865,-2.809069,-16.842403,138.037018,-106.545364
862,169616395,-38.114937,3.436941,133.997009,0.971370,2.944210,-3.153880,-12.251066,153.693115,-116.579239
863,169633062,-38.460133,4.443064,130.561050,1.455505,2.112209,-3.556464,-7.309244,173.552521,-121.709480
864,169649729,-38.842896,5.608815,126.789185,2.698569,1.170787,-3.426080,-3.961524,194.226410,-130.150467
865,169666396,-39.235054,6.917394,122.717354,3.515558,-0.436116,-2.997563,2.286586,213.051010,-137.402695
866,169683063,-39.561222,8.328520,118.343559,4.568108,-2.705601,-1.988595,14.484972,230.259338,-146.376495
867,169699730,-39.744946,9.722981,113.684891,5.163476,-5.522661,-0.604205,32.159435,240.787262,-158.917053
868,169716397,-39.779968,11.009166,108.866005,4.946475,-8.594333,0.439583,49.230480,241.430084,-169.043442
869,169733064,-39.712540,12.076127,104.110245,3.277659,-11.994729,1.676866,60.422825,228.162964,-173.811554
870,169749731,-39.494911,12.806847,99.713211,0.822101,-14.006709,3.279568,69.150520,198.179764,-170.346512
871,169766398,-38.851147,13.215203,96.148636,-1.787709,-11.604546,3.127381,86.002945,150.773285,-145.900467
872,169783065,-37.379700,13.569427,93.941582,-3.338813,-8.158754,1.087140,118.162544,96.368698,-88.094589
873,169799732,-35.412338,13.863900,93.222527,-3.500143,-5.621505,-0.179270,127.466919,39.207882,-23.136457
874,169816399,-33.478138,14.068427,93.498314,-2.141872,-3.985092,-0.994349,111.240433,1.140130,20.282822
875,169833066,-32.229973,14.186531,94.170044,-2.156574,-3.250606,-0.050337,64.227798,-15.157233,36.761765
876,169849733,-31.982006,14.188488,94.766922,-1.748853,-2.404217,1.005157,5.270765,-18.269453,29.547396
877,169866400,-32.591167,14.169566,95.061401,-0.469646,-1.260731,0.469355,-41.712074,-10.032322,13.943019
878,169883067,-33.636669,14.235931,95.063591,1.773490,-0.132038,-0.531780,-63.599087,3.336979,2.349352
879,169899734,-34.466213,14.387956,94.938339,2.709981,0.339371,0.061170,-48.744373,11.703283,-0.857098
880,169916401,-34.781208,14.563174,94.829216,2.264181,-0.141143,0.568892,-18.083773,12.320145,0.827708
881,169933068,-34.655151,14.675292,94.805061,1.387973,-0.520954,0.582491,7.115908,6.392567,2.750465
882,169949735,-34.386288,14.722499,94.829056,0.163797,-0.456524,0.056267,14.958242,1.606398,2.824001
883,169966402,-34.291080,14.714311,94.854607,-0.727238,-0.335614,-0.175169,4.515538,-1.182270,1.017638
884,169983069,-34.540886,14.676068,94.880409,-1.188957,-0.469209,-0.172420,-16.192030,-2.680179,0.007088
885,169999736,-35.068966,14.626001,94.912750,-0.506494,-0.394307,-0.185836,-32.989792,-3.479370,-0.106895
886,170016403,-35.642818,14.581103,94.936867,0.501629,0.048901,-0.162582,-35.612213,-2.951429,-0.351049
887,170033070,-36.036152,14.558420,94.947975,0.692229,0.200328,0.117996,-24.582993,-1.426720,-0.207310
888,170049737,-36.251812,14.540454,94.952194,0.360450,-0.092317,0.126854,-13.815845,-0.959734,-0.371013
889,170066404,-36.405396,14.481736,94.971718,-0.146828,-0.300878,0.012476,-10.320410,-3.457485,-1.106200
890,170083071,-36.550343,14.391319,95.039978,-0.256787,-0.454036,-0.069640,-10.530437,-6.668654,0.030229
891,170099738,-36.623112,14.252193,95.149033,0.040845,-0.400709,-0.201059,-6.798767,-10.430790,0.179641
892,170116405,-36.553925,14.100120,95.309120,0.074410,-0.257522,-0.140374,0.986134,-12.827845,2.101581
893,170133072,-36.428879,13.940169,95.523926,-0.438834,-0.522172,-0.010134,3.566617,-15.104004,4.408289
894,170149739,-36.402767,13.762040,95.822090,-0.968521,-0.882620,0.021655,-3.530921,-18.865587,7.693215
895,170166406,-36.557087,13.561828,96.255417,-1.292460,-1.262490,-0.013948,-16.217524,-24.635576,13.229616
896,170183073,-36.861382,13.331839,96.838127,-0.677421,-1.345741,-0.111918,-27.209621,-31.348103,19.065241
897,170199740,-37.142715,13.068037,97.538521,0.021278,-0.996851,-0.308092,-27.300423,-37.226818,23.196711
898,170216407,-37.317009,12.815795,98.378906,-0.093413,-1.190066,-0.209211,-22.574003,-41.749313,30.018385
899,170233074,-37.520779,12.549727,99.372307,-0.670514,-1.890398,-0.068556,-26.135496,-47.983547,36.525925
900,170249741,-37.951763,12.252470,100.549294,-1.233636,-2.893921,-0.248798,-41.850578,-56.294838,43.668625
901,170266408,-38.666485,11.896183,101.919289,-0.879761,-3.546041,-0.498023,-60.906033,-66.587547,49.852276
902,170283075,-39.491795,11.502919,103.484406,-0.200042,-3.163908,-0.827956,-69.394096,-76.280853,56.531620
903,170299742,-40.258572,11.124713,105.233559,-0.217163,-2.891980,-0.767658,-67.429741,-83.395546,64.442696
904,170316409,-40.961845,10.788817,107.163689,-0.408003,-3.470014,-0.482031,-65.044205,-89.317169,73.200645
905,170333076,-41.647171,10.458831,109.279648,-0.116316,-4.001961,-0.050627,-65.366402,-97.256538,80.665062
906,170349743,-42.275253,10.097505,111.580185,0.476065,-4.341941,0.161067,-63.159981,-106.961716,86.484169
907,170366410,-42.719231,9.654788,114.032173,1.184219,-4.145735,0.257087,-52.725319,-117.538429,88.893913
908,170383077,-42.773987,9.121038,116.630096,1.345415,-3.579766,0.118883,-29.572306,-127.950905,91.161034
909,170399744,-42.457493,8.568882,119.343513,0.712055,-2.721771,-0.341234,-6.912719,-133.358246,95.906715
910,170416411,-41.973679,8.044692,122.107079,0.083089,-2.452142,-0.322293,4.197304,-133.601456,100.327805
911,170433078,-41.564754,7.518205,124.858849,0.015251,-2.763874,0.024751,1.130983,-133.366577,101.861488
912,170449745,-41.343189,6.915208,127.617554,0.155943,-3.031712,0.523484,-8.548696,-136.698975,100.064308
913,170466412,-41.234726,6.234723,130.373703,0.554504,-2.954434,0.553431,-13.471914,-139.982468,97.472427
914,170483079,-41.163559,5.427651,133.192978,0.389909,-3.012090,0.319176,-13.947820,-148.161087,95.666130
915,170499746,-41.085255,4.534870,136.043854,0.290751,-2.563328,-0.541639,-11.174549,-153.313385,94.076111
916,170516413,-40.969334,3.550513,138.849518,0.660359,-1.309409,-1.769014,-5.922275,-155.684875,88.871017
917,170533080,-40.740589,2.489710,141.622238,0.227014,-0.483940,-2.720564,3.969309,-157.677292,84.933456
918,170549747,-40.480713,1.398569,144.385574,0.312631,0.072402,-2.893564,9.017098,-157.648193,83.107491
919,170566414,-40.157524,0.264267,147.085236,0.616109,2.310241,-1.643353,16.083998,-156.775299,79.384369
920,170583081,-39.448879,-0.789806,149.752075,0.773030,5.610775,-0.631671,42.293846,-151.101868,82.378601
921,170599748,-38.200230,-1.680666,152.319366,0.622441,7.884242,-0.869357,77.290749,-138.272232,86.415764
922,170616415,-36.539658,-2.242709,154.742401,0.279686,10.918528,-1.182477,103.685211,-115.063141,94.962479
923,170633082,-34.990662,-2.896405,156.637329,0.657127,9.372903,-1.368638,97.152451,-98.269508,69.209389
924,170649749,-33.915672,-3.339321,158.032486,-0.976835,9.802917,0.290443,68.206772,-69.249031,53.864708
925,170666416,-33.365597,-3.754972,158.777817,-0.429388,8.066394,0.751386,34.961658,-45.523331,23.329113
926,170683083,-33.240356,-4.164183,158.871887,-0.506515,7.238034,0.651496,7.122749,-23.634714,-8.783128
927,170699750,-33.331676,-4.513872,158.498169,-0.358516,5.331472,-0.455456,-7.931615,-5.279334,-30.207212
928,170716417,-33.583874,-4.737253,157.914093,-0.388454,3.567412,-0.764382,-18.696720,8.073102,-36.526993
929,170733084,-33.804493,-4.839534,157.288635,-0.363024,1.955609,-0.238215,-17.095839,15.645747,-34.512688
930,170749751,-33.960243,-4.828727,156.738800,-0.710721,0.334274,-0.283051,-12.846962,18.873703,-26.917818
931,170766418,-34.132370,-4.726089,156.332794,-1.139792,-0.805250,-0.444598,-13.079636,18.706755,-16.654139
932,170783085,-34.280022,-4.546680,156.096298,-1.292212,-0.868604,-0.649334,-10.734324,16.868362,-5.629923
933,170799752,-34.347591,-4.322825,156.018280,-1.169335,-0.624235,-0.526853,-5.149975,13.741909,3.734610
934,170816419,-34.361229,-4.063592,156.047241,-0.932926,-0.229127,-0.467052,-1.430740,11.882082,10.228114
935,170833086,-34.371075,-3.800468,156.144470,-0.658794,0.065321,-0.302185,-0.931945,9.767765,13.737314
936,170849753,-34.394688,-3.563106,156.253067,-0.432927,0.164589,-0.303510,-1.741396,8.103519,13.432988
937,170866420,-34.423363,-3.355845,156.346481,-0.342786,0.312944,-0.487354,-2.124780,7.121725,11.667752
938,170883087,-34.490788,-3.174847,156.409515,-0.073543,0.458138,-0.567682,-4.573560,6.842122,9.284436
939,170899754,-34.563625,-3.025095,156.449615,0.113721,0.544521,-0.527050,-4.982248,6.065159,7.099337
940,170916421,-34.589500,-2.909832,156.466873,0.107960,0.577811,-0.610773,-2.239011,5.131845,4.803617
941,170933088,-34.549915,-2.832193,156.462936,-0.050809,0.418122,-0.583957,1.624069,3.994461,2.477100
942,170949755,-34.520035,-2.782928,156.443939,-0.173073,0.121282,-0.400103,0.998453,3.105789,0.766261
943,170966422,-34.563129,-2.757672,156.406296,-0.074271,0.262319,-0.278773,-3.433434,2.553132,-0.969876
944,170983089,-34.609688,-2.756924,156.356567,0.006502,0.592522,-0.376516,-3.676050,1.754925,-2.398873
945,170999756,-34.566158,-2.766675,156.300903,-0.041105,0.765659,-0.511399,1.714021,1.438864,-3.048155
946,171016423,-34.465855,-2.793957,156.246765,-0.199727,0.434984,-0.382596,5.125671,0.517908,-3.570436
947,171033090,-34.395134,-2.823387,156.202560,-0.347609,0.037602,-0.192991,3.378603,0.070697,-3.152334
948,171049757,-34.385277,-2.860806,156.166519,-0.445991,0.207530,-0.222829,-0.252528,-0.602552,-3.018226
949,171066424,-34.397118,-2.903041,156.153595,-0.512278,0.287366,-0.245130,-1.484947,-1.621835,-2.037695
950,171083091,-34.418236,-2.950138,156.153976,-0.363765,0.526570,-0.245234,-2.002234,-2.311059,-1.543664
951,171099758,-34.444881,-2.999936,156.160248,-0.307770,0.899793,-0.214975,-2.315286,-2.641822,-1.344411
952,171116425,-34.472576,-3.046483,156.150909,-0.300655,1.140030,-0.225697,-2.425523,-1.949895,-2.004219
953,171133092,-34.529797,-3.103062,156.098892,-0.258742,1.241780,-0.111528,-4.332145,-0.993222,-4.453179
954,171149759,-34.641232,-3.169978,155.976318,-0.221863,1.689312,-0.149882,-7.815283,0.904430,-8.284699
955,171166426,-34.792328,-3.240252,155.759338,-0.131930,2.392990,-0.190497,-10.516931,3.981594,-13.043498
956,171183093,-34.956879,-3.310699,155.416763,0.012378,3.118380,-0.222645,-11.763039,8.314455,-19.207523
957,171199760,-35.091984,-3.388443,154.917160,0.188131,3.936728,-0.198794,-10.564584,13.408277,-27.134178
958,171216427,-35.143261,-3.461460,154.240524,0.120579,4.485854,-0.054174,-6.195723,19.789009,-35.616505
959,171233094,-35.142117,-3.491223,153.389954,-0.111917,4.569500,0.107378,-3.707869,27.928682,-42.623878
960,171249761,-35.283958,-3.499226,152.340790,-0.353613,4.106606,0.151901,-13.015319,35.915291,-51.547668
961,171266428,-35.688427,-3.503639,151.083618,-0.594348,4.171530,0.257831,-29.531700,43.576584,-61.385178
962,171283095,-36.282963,-3.489420,149.631485,-0.655717,4.713319,0.267401,-41.633163,51.887203,-69.785339
963,171299762,-36.936523,-3.425170,148.008286,-0.641333,5.119222,0.110515,-45.723949,61.179379,-75.642944
964,171316429,-37.532570,-3.275476,146.214111,-0.687052,5.583233,-0.120927,-42.682129,72.299858,-80.019615
965,171333096,-37.995388,-2.961423,144.259094,-0.728951,5.789762,-0.383988,-34.770065,86.762924,-80.931435
966,171349763,-38.349335,-2.473855,142.185562,-0.680895,5.111228,-0.523508,-27.748016,99.953758,-79.478409
967,171366430,-38.642330,-1.868012,139.965118,-0.469705,4.302233,-0.405551,-23.234911,111.484772,-81.414070
968,171383097,-38.888432,-1.214903,137.544998,-0.325374,3.836511,-0.494897,-19.281458,121.618744,-88.471581
969,171399764,-39.130795,-0.510162,134.874161,-0.049742,3.477716,-0.935679,-17.565588,133.906494,-97.705048
970,171416431,-39.425968,0.260375,131.919861,0.514068,3.149155,-1.377253,-18.714350,148.207764,-107.739990
971,171433098,-39.821621,1.136657,128.646851,0.921672,2.537627,-2.172925,-21.984268,164.732727,-115.885010
972,171449765,-40.295380,2.135198,125.118004,1.644598,1.403818,-2.433405,-23.047283,181.546219,-122.234818
973,171466432,-40.699314,3.213041,121.330994,2.731343,0.057608,-2.123631,-14.332302,196.186798,-129.572144
974,171483099,-40.907711,4.292069,117.283607,3.530607,-1.576665,-1.980833,2.716721,207.542877,-140.839935
975,171499766,-40.921528,5.319949,112.974899,4.059061,-3.582388,-1.685592,20.216791,216.061218,-154.712158
976,171516433,-40.710907,6.272817,108.417961,4.306596,-5.264749,-1.313445,39.744267,222.421753,-169.732544
977,171533100,-40.067448,7.214353,103.689926,4.263945,-7.607159,-1.137198,71.166367,225.776047,-177.751556
978,171549767,-38.953053,8.135260,99.074501,2.581495,-11.025240,-0.589275,103.061714,217.427185,-176.387421
979,171566434,-37.501194,8.951059,94.964676,-1.184915,-13.463561,0.449168,122.938499,189.520599,-161.103470
980,171583101,-35.958496,9.522051,91.833328,-6.041598,-12.225716,0.684263,121.907059,138.517090,-127.997597
981,171599768,-34.632412,9.887127,90.145813,-8.664104,-7.262849,0.654600,95.804420,75.668541,-68.684662
982,171616435,-33.809158,10.085584,89.769897,-4.530114,-3.726714,-0.613466,52.450470,22.447168,-11.578281
983,171633102,-33.403957,10.188424,90.190399,-0.160942,-3.324289,-1.313581,18.998886,-8.509096,24.180931
984,171649769,-33.232483,10.271548,90.936684,-0.207764,-3.262824,-0.708241,1.465524,-19.948498,39.633949
985,171666436,-33.375259,10.289075,91.591530,-0.578668,-2.327340,0.097620,-16.447708,-20.271362,32.953239
986,171683103,-33.813808,10.244242,91.978844,-0.165315,-1.171087,0.547810,-31.325071,-14.824286,17.619295
987,171699770,-34.429092,10.239646,92.081985,1.348520,-0.114047,0.285837,-38.887424,-3.579612,4.945410
988,171716437,-34.875240,10.351151,92.033600,2.562398,0.316056,0.314830,-27.113638,7.191060,1.512402
989,171733104,-34.863518,10.553439,91.959663,1.935437,-0.013495,0.335616,0.652452,12.514072,3.420726
990,171749771,-34.579987,10.726289,91.948608,0.526713,-0.527177,0.129265,16.284683,8.955920,5.433389
991,171766438,-34.347591,10.800927,91.996262,-0.572635,-0.647563,-0.323872,12.563633,2.162616,4.909081
992,171783105,-34.315392,10.829926,92.108162,-0.323231,-0.463088,-0.506021,-0.175780,-2.225462,6.484655
993,171799772,-34.407654,10.823560,92.208488,0.260239,-0.249055,-0.373804,-7.516150,-3.597317,4.721913
994,171816439,-34.476059,10.816164,92.278702,0.307330,-0.267004,-0.201491,-5.743098,-2.652004,3.217129
995,171833106,-34.493832,10.814243,92.359482,0.002835,-0.444753,-0.040738,-2.822532,-2.737460,3.914306
996,171849773,-34.540237,10.816614,92.501640,-0.611542,-0.699219,-0.180795,-5.231997,-4.579399,7.037635
997,171866440,-34.688046,10.812471,92.714745,-0.500461,-0.860142,-0.575170,-12.116791,-7.289343,10.245940
998,171883107,-34.859886,10.789530,92.936432,0.456048,-0.465185,-0.789473,-13.652982,-8.536736,9.996464
999,171899774,-34.926407,10.772744,93.148346,0.597983,-0.282084,-0.489266,-7.218176,-7.927302,9.717177
1000,171916441,-34.901974,10.748316,93.371483,0.028496,-0.707049,-0.197183,-1.879704,-8.686347,9.993358
1001,171933108,-34.883934,10.684984,93.667778,-0.781128,-1.212417,0.078097,-3.070236,-13.069470,12.200284
1002,171949775,-34.973434,10.571673,94.126602,-1.352118,-1.613344,0.174641,-11.295198,-21.029400,18.333164
1003,171966442,-35.166710,10.415677,94.802895,-1.212300,-1.832265,-0.046005,-19.840355,-30.553370,27.315712
1004,171983109,-35.423340,10.216434,95.725822,-1.168527,-2.023086,-0.208371,-26.171215,-41.208374,37.592537
1005,171999776,-35.700462,9.966084,96.908745,-1.254263,-2.258018,0.113435,-29.924320,-52.837513,48.137302
1006,172016443,-35.910206,9.660380,98.353455,-1.138801,-2.590102,0.449607,-28.223343,-64.829102,58.563625
1007,172033110,-36.053272,9.278409,100.052307,-1.071918,-3.206456,0.693661,-26.224148,-77.607544,67.912445
1008,172049777,-36.162323,8.809222,101.986229,-0.855146,-3.705606,0.495110,-25.657701,-90.271378,76.001747
1009,172066444,-36.332371,8.250525,104.096367,-0.690332,-3.850672,-0.047185,-29.862270,-101.073303,81.160271
1010,172083111,-36.666691,7.631889,106.332664,-0.563661,-3.638329,-0.614467,-39.479439,-108.898758,84.742821
1011,172099778,-37.193699,6.994111,108.655800,-0.487882,-3.241453,-0.686500,-50.251877,-113.682510,87.512627
1012,172116445,-37.860989,6.349925,111.033813,-0.298738,-3.003871,-0.275813,-57.507851,-117.008163,88.827171
1013,172133112,-38.495464,5.727139,113.462341,0.410949,-2.967197,-0.125079,-54.297718,-118.978157,90.786995
1014,172149779,-38.974903,5.121269,115.982773,0.883572,-3.137255,-0.086143,-43.966572,-122.600479,94.658043
1015,172166446,-39.232792,4.540933,118.624077,1.237429,-3.637954,-0.180443,-29.731394,-126.671669,100.544167
1016,172183113,-39.320343,3.974742,121.375702,1.220797,-3.751618,-0.355413,-18.480724,-130.983765,106.440132
1017,172199780,-39.391941,3.414340,124.211990,0.907366,-3.039279,-0.586360,-16.245218,-134.298080,110.667885
1018,172216447,-39.607082,2.834094,127.048798,0.515812,-2.435965,-0.950991,-23.168667,-135.663055,109.778252
1019,172233114,-39.988518,2.268174,129.855453,0.318353,-2.815276,-1.314092,-31.366934,-134.604034,108.466988
1020,172249781,-40.489227,1.737220,132.688644,0.609690,-3.321907,-0.738286,-36.964153,-134.946411,110.094788
1021,172266448,-41.054306,1.212668,135.590240,1.017657,-3.212726,-0.209938,-39.363052,-138.443649,112.295525
1022,172283115,-41.585594,0.669444,138.569183,0.909053,-3.055151,-0.602340,-35.784050,-143.446808,113.736984
1023,172299782,-42.058376,0.101498,141.629807,0.590067,-2.506426,-1.560186,-30.582829,-147.932663,114.052223
1024,172316449,-42.301201,-0.457336,144.713791,0.470749,-1.265313,-2.799000,-14.990624,-149.180222,114.533852
1025,172333116,-42.144745,-0.896190,147.806183,0.235337,1.365667,-2.667887,10.568427,-144.265656,119.626350
1026,172349783,-41.677414,-1.212972,150.966125,0.580280,2.912684,-0.458652,30.514219,-140.850769,128.311676
1027,172366450,-40.774216,-1.631104,153.871674,1.896586,3.211544,-0.521685,57.503727,-133.798477,114.492813
1028,172383117,-39.459839,-1.763016,156.840591,-0.311362,8.997406,0.665281,83.128059,-120.858490,131.018097
1029,172399784,-37.678768,-1.653976,159.462143,0.585995,11.313931,-1.130252,110.571106,-92.971382,126.974518
1030,172416451,-36.041485,-1.680298,161.376816,-0.210194,11.647469,-2.680101,100.645752,-70.195229,90.910591
1031,172433118,-34.651291,-1.447031,162.749649,-0.574276,11.484072,-0.349241,84.772072,-36.253139,75.249992
1032,172449785,-33.890636,-1.271484,163.502670,0.900097,7.526670,0.293934,45.869343,-16.750391,43.257778
1033,172466452,-33.777660,-1.178350,163.611816,0.602008,6.425306,1.723238,6.107920,0.980064,8.554996
1034,172483119,-33.912472,-1.222445,163.127640,0.688737,4.803914,1.913836,-9.483685,13.967555,-25.587456
1035,172499786,-34.183846,-1.353243,162.276489,0.530730,3.224657,1.579248,-18.197155,22.075708,-46.685936
1036,172516453,-34.445457,-1.516136,161.268906,0.472059,2.193108,0.835760,-17.966272,25.992516,-55.412895
1037,172533120,-34.727955,-1.703732,160.239761,0.085585,0.858275,-0.110871,-19.432449,25.769531,-57.189640
1038,172549787,-34.994713,-1.879040,159.340897,-0.521739,-0.503889,-0.525756,-18.436522,22.181454,-50.226982
1039,172566454,-35.143974,-2.056065,158.629364,-0.870524,-1.082896,-0.558854,-11.170547,15.824042,-41.005428
1040,172583121,-35.118622,-2.260956,158.122208,-1.252990,-1.315493,-0.369603,-0.380491,7.448809,-31.923342
1041,172599788,-34.997177,-2.471712,157.815277,-1.501042,-1.124020,-0.409207,5.763195,0.225847,-22.305143
1042,172616455,-34.871056,-2.659478,157.677292,-1.510136,-0.469352,-0.460769,6.427686,-4.489065,-13.209044
1043,172633122,-34.787888,-2.796373,157.656265,-1.457812,-0.024016,-0.588174,4.156167,-6.007486,-5.700709
1044,172649789,-34.777905,-2.869245,157.708755,-1.253074,0.195505,-0.723533,-0.020849,-5.366528,0.116749
1045,172666456,-34.835056,-2.891220,157.811020,-0.955965,0.252185,-0.807041,-3.898484,-4.558242,4.309983
1046,172683123,-34.929531,-2.867823,157.925980,-0.703220,0.661805,-0.944053,-6.101562,-2.763393,6.487346
1047,172699790,-34.990582,-2.815536,158.044357,-0.407619,1.051998,-0.917972,-4.087813,-1.466110,7.646142
1048,172716457,-34.955700,-2.738528,158.149628,-0.340019,0.937230,-0.858192,1.623647,0.199850,7.854116
1049,172733124,-34.899158,-2.658678,158.232666,-0.269946,0.580886,-0.721627,2.854107,1.110586,6.860549
1050,172749791,-34.867977,-2.574168,158.305161,-0.239775,0.616160,-0.727792,1.298174,1.706722,6.503649
1051,172766458,-34.846684,-2.494216,158.366562,-0.193830,1.029533,-0.737537,0.672122,1.866826,5.801487
1052,172783125,-34.772514,-2.411602,158.403244,-0.286373,1.007694,-0.614683,3.778008,2.849817,4.676373
1053,172799792,-34.672569,-2.340579,158.421326,-0.335161,0.652354,-0.410702,5.278068,2.922262,3.360624
1054,172816459,-34.594612,-2.304650,158.415115,-0.407914,0.539524,-0.292395,3.899784,2.023961,0.962980
1055,172833126,-34.529491,-2.259400,158.416458,-0.475553,0.388146,-0.268085,3.149331,2.230962,1.650898
1056,172849793,-34.503471,-2.222010,158.419662,-0.297142,0.220599,-0.305440,0.808177,1.781114,1.476284
1057,172866460,-34.490250,-2.200611,158.434891,-0.242632,0.317419,-0.248486,0.066523,0.583950,1.526434
1058,172883127,-34.457336,-2.191712,158.467285,-0.266266,0.304604,-0.174248,1.289426,-0.615204,1.950260
1059,172899794,-34.388130,-2.188297,158.511612,-0.332815,0.357754,-0.158166,3.493963,-1.288793,2.356426
1060,172916461,-34.322025,-2.194311,158.563248,-0.351692,0.325431,-0.163521,3.324266,-1.999430,2.401569
1061,172933128,-34.272423,-2.204008,158.612289,-0.325659,0.596893,-0.229582,2.330442,-2.090086,2.149924
1062,172949795,-34.217690,-2.210416,158.644485,-0.247185,1.084635,-0.232849,2.599516,-1.355501,1.429285
1063,172966462,-34.165733,-2.217356,158.647629,-0.194742,1.164799,-0.099742,2.369335,-0.400877,-0.025382
1064,172983129,-34.149540,-2.222747,158.596817,-0.096999,1.416695,-0.041841,0.101535,1.495225,-2.650146
1065,172999796,-34.179703,-2.253283,158.460632,0.074766,2.205693,-0.105844,-2.876819,3.122438,-7.729606
1066,173016463,-34.216301,-2.304711,158.201752,0.065011,3.191187,-0.156205,-3.554060,6.228189,-14.515972
1067,173033130,-34.254177,-2.367431,157.778717,-0.042459,4.112826,-0.074348,-4.036853,11.216718,-23.024092
1068,173049797,-34.350826,-2.436151,157.153610,-0.143128,4.406833,0.273355,-8.087623,17.779205,-33.215683
1069,173066464,-34.505619,-2.489094,156.356522,-0.203133,3.827304,0.705112,-12.044950,24.468401,-41.139282
1070,173083131,-34.689655,-2.517666,155.378799,-0.257604,3.836190,0.796860,-14.297281,31.947285,-49.141270
1071,173099798,-35.006607,-2.554303,154.199661,-0.551752,3.774978,0.407505,-22.829134,38.670994,-59.178509
1072,173116465,-35.447567,-2.552665,152.842224,-0.692309,3.948686,-0.317522,-30.759123,47.111664,-66.319748
1073,173133132,-35.982952,-2.483101,151.341660,-0.705181,3.800751,-0.602724,-36.741730,56.004333,-70.495491
1074,173149799,-36.495838,-2.343005,149.709793,-0.297010,3.684909,-0.569489,-35.553650,64.728027,-73.823074
1075,173166466,-36.874805,-2.154293,147.961792,-0.029483,3.423723,-0.409286,-27.505064,71.817039,-77.159164
1076,173183133,-37.098770,-1.909626,146.104477,-0.058140,3.105376,-0.387440,-18.038990,78.864647,-79.998299
1077,173199800,-37.224010,-1.565202,144.135620,-0.213805,2.912772,-0.682936,-11.744689,87.939468,-81.479355
1078,173216467,-37.329395,-1.113140,142.053268,-0.292421,2.674908,-1.153756,-9.890111,97.388893,-82.817200
1079,173233134,-37.493023,-0.550811,139.871368,-0.235459,2.145251,-1.588195,-12.367204,106.486702,-83.317833
1080,173249801,-37.710098,0.103694,137.573654,-0.018969,1.696430,-1.687428,-14.215652,115.401672,-85.096420
1081,173266468,-37.882961,0.828279,135.178131,0.331790,1.209413,-1.670877,-9.864558,122.613152,-86.751602
1082,173283135,-37.995651,1.613092,132.668106,0.298643,0.633646,-1.581179,-4.245337,128.916046,-88.232697
1083,173299802,-37.982227,2.490695,130.110413,0.398862,-0.111853,-1.468557,5.570841,135.164413,-86.975540
1084,173316469,-37.909740,3.454901,127.543617,0.434293,-1.350380,-1.757561,11.588980,139.765137,-84.643776
1085,173333136,-37.907333,4.438357,124.986084,0.410072,-2.140178,-1.913925,9.922365,140.166840,-83.438652
1086,173349803,-38.007256,5.392818,122.455948,0.296390,-2.465036,-1.838890,6.267473,138.234970,-83.652847
1087,173366470,-38.087036,6.284795,119.928490,0.589881,-2.482144,-1.645172,9.890568,135.262344,-85.572113
1088,173383137,-38.033722,7.145287,117.426605,0.537121,-2.289703,-1.664984,20.024549,132.883224,-85.575394
1089,173399804,-37.863968,8.006993,114.936607,0.512444,-2.675382,-1.724608,29.108234,132.015152,-84.806580
1090,173416471,-37.684811,8.826398,112.444679,0.811383,-2.894812,-1.013760,31.845901,129.628082,-86.618217
1091,173433138,-37.562935,9.575562,109.940216,0.639246,-2.814187,-0.618178,30.539843,126.316574,-89.876747
1092,173449805,-37.473862,10.299275,107.438309,0.613209,-3.505566,-0.116645,30.437963,124.645447,-90.672882
1093,173466472,-37.467083,10.933330,104.920258,1.021271,-4.114526,0.312876,27.419079,120.677330,-94.561691
1094,173483139,-37.458183,11.440116,102.435463,1.238642,-4.266736,0.301142,28.626635,113.229576,-97.453896
1095,173499806,-37.266167,11.898788,100.136299,0.814146,-4.364100,0.499749,38.584885,103.981987,-90.548538
1096,173516473,-36.802540,12.326330,98.133179,0.293009,-4.203521,0.914646,52.190437,91.367714,-78.240608
1097,173533140,-36.089203,12.706574,96.521667,-0.549518,-3.950878,0.722527,62.901924,74.530663,-62.273998
1098,173549807,-35.218880,13.039660,95.371368,-1.227902,-3.459098,0.350430,66.738686,55.551781,-42.930580
1099,173566474,-34.344196,13.284262,94.674660,-1.550119,-3.120589,0.195553,61.135357,35.358757,-24.978870
1100,173583141,-33.592812,13.452209,94.390129,-1.728915,-2.657861,-0.205239,48.159588,17.715391,-8.073929
1101,173599808,-33.143513,13.586229,94.443268,-1.827315,-2.432275,-0.320584,25.334423,5.080388,7.074751
1102,173616475,-33.146996,13.694734,94.678513,-1.294924,-1.684610,-0.082767,-4.422600,-1.985601,15.100140
1103,173633142,-33.542286,13.774567,94.944672,-0.401550,-1.388129,0.213778,-28.395729,-4.465950,15.642498
1104,173649809,-34.093739,13.825808,95.174255,0.753480,-1.090422,0.432568,-37.263226,-4.836613,12.873545
1105,173666476,-34.542320,13.855769,95.355362,1.217515,-0.673936,0.415384,-30.400019,-4.413993,9.774605
1106,173683143,-34.770638,13.862018,95.519043,1.249283,-0.548463,0.497999,-16.932808,-5.066647,8.101761
1107,173699810,-34.798599,13.825948,95.692314,0.980120,-0.720288,0.676700,-5.042183,-7.493371,7.101285
1108,173716477,-34.729946,13.753309,95.926949,0.242909,-0.957683,0.615122,-0.108688,-11.335702,8.790151
1109,173733144,-34.702179,13.639923,96.254761,-0.157388,-1.032016,0.444137,-3.864014,-16.438923,11.875352
1110,173749811,-34.760204,13.492182,96.665276,-0.141322,-0.991782,0.257154,-10.130449,-20.891294,14.665339
1111,173766478,-34.893925,13.320131,97.146271,-0.093409,-0.994380,0.274957,-15.587284,-24.475979,17.185659
1112,173783145,-35.066456,13.115632,97.674728,0.170131,-1.077798,0.261066,-18.474293,-27.722124,18.291563
1113,173799812,-35.237141,12.868487,98.239014,0.240597,-1.052532,0.247657,-18.724554,-31.094429,18.468367
1114,173816479,-35.353470,12.590499,98.885612,0.041604,-1.325182,0.292881,-16.399235,-35.457458,21.279007
1115,173833146,-35.443748,12.284039,99.679283,-0.481122,-1.692018,0.355815,-16.544209,-41.909340,27.281702
1116,173849813,-35.559975,11.945025,100.646790,-0.802058,-2.094781,0.381731,-20.030079,-49.508072,34.416866
1117,173866480,-35.755161,11.548908,101.776390,-0.640169,-2.258576,0.291068,-26.384974,-57.984810,40.077839
1118,173883147,-36.006443,11.077786,103.057816,-0.378865,-2.395332,0.185791,-31.039877,-67.089127,44.531067
1119,173899814,-36.240967,10.531062,104.475342,-0.037327,-2.440351,0.100915,-30.897375,-75.752518,48.150925
1120,173916481,-36.419228,9.898849,105.985092,0.235681,-2.454192,-0.180753,-27.644224,-83.384460,49.350117
1121,173933148,-36.598591,9.222054,107.555260,0.043751,-2.237031,-0.544731,-27.295507,-87.927238,50.509377
1122,173949815,-36.937908,8.529945,109.137596,-0.466077,-1.940372,-0.728913,-35.896164,-89.436897,50.278698
1123,173966482,-37.471485,7.837041,110.712387,-0.513639,-1.624205,-0.762100,-46.355438,-89.691353,49.342033
1124,173983149,-38.150417,7.162021,112.298096,-0.353572,-1.640205,-0.701959,-54.049278,-89.856224,49.680576
1125,173999816,-38.841812,6.524405,113.950333,-0.051965,-1.821176,-0.567399,-54.194504,-91.241837,53.204865
1126,174016483,-39.413414,5.914079,115.680992,0.456334,-2.152705,-0.613952,-46.449539,-93.584770,56.949379
1127,174033150,-39.825798,5.300251,117.525261,0.691555,-2.049917,-0.762704,-36.462223,-98.636284,61.320553
1128,174049817,-40.079525,4.693080,119.476387,0.589969,-2.139484,-0.547999,-26.357319,-103.040573,66.213882
1129,174066484,-40.232559,4.091510,121.500488,0.269085,-1.897056,-0.228892,-19.433798,-106.006706,69.610474
1130,174083151,-40.368557,3.502210,123.546524,0.280131,-1.730512,-0.231780,-17.251118,-106.634712,71.019096
1131,174099818,-40.605347,2.914708,125.606522,0.265792,-1.649823,-0.282003,-22.096107,-107.530602,71.629738
1132,174116485,-40.921127,2.328976,127.664200,0.832428,-1.665175,-0.371073,-25.558090,-107.743530,71.115173
1133,174133152,-41.184296,1.730252,129.739548,1.417246,-1.518976,-0.363637,-21.161812,-109.487846,70.976334
1134,174149819,-41.324261,1.097106,131.799820,1.293659,-0.414654,-0.293080,-12.399755,-110.754410,68.614418
1135,174166486,-41.380230,0.434774,133.802917,0.756764,0.398378,-0.589940,-5.904629,-109.922699,64.692497
1136,174183153,-41.507320,-0.193360,135.683868,0.492616,0.964340,-1.072772,-8.788396,-103.649323,60.397499
1137,174199820,-41.779850,-0.807903,137.399170,0.659169,1.931126,-0.886727,-16.364223,-96.619911,53.123703
1138,174216487,-42.056362,-1.387447,138.968307,0.801964,2.574384,-0.617537,-15.714346,-88.819916,46.777081
1139,174233154,-42.220791,-1.939126,140.371658,1.310264,2.420940,-0.807437,-8.340531,-81.069054,40.171135
1140,174249821,-42.212933,-2.479955,141.665512,1.379137,2.025764,-0.872695,2.553874,-76.210045,35.618492
1141,174266488,-41.884789,-2.921839,142.870331,1.151762,3.012201,-1.234260,22.192564,-68.102745,35.835861
1142,174283155,-41.142982,-3.330684,143.937057,0.549418,3.730008,-1.152252,47.104397,-60.776356,31.571514
1143,174299822,-39.999943,-3.681481,144.882965,-0.188722,2.563832,-1.387488,71.170319,-52.876671,29.323185
