sep=,
DeviceTag:,DOT10
FirmwareVersion:,3.0.0
AppVersion:,2023.6.0
SyncStatus:,Synced
OutputRate:,60Hz
FilterProfile:,Dynamic
Measurement Mode:,Custom modes - custom mode1
StartTime: ,2026-06-02_17:23:34_274 GMT+2
© Movella Technologies B. V. 2005-2026

PacketCounter,SampleTimeFine,Euler_X,Euler_Y,Euler_Z,FreeAcc_X,FreeAcc_Y,FreeAcc_Z,Gyr_X,Gyr_Y,Gyr_Z
1,212988547,-150.776337,-72.689247,167.210953,-0.030217,0.082249,0.338199,5.010132,-1.286859,2.608698
2,213005214,-150.650742,-72.659439,167.108704,0.077880,-0.095780,0.354390,3.090832,-1.726168,2.479073
3,213021881,-150.557739,-72.629196,166.988480,0.238598,0.010396,0.358186,0.105018,-1.583070,2.774502
4,213038548,-150.498291,-72.587753,166.866974,0.268448,0.180277,0.258319,-1.981565,-2.159022,3.133855
5,213055215,-150.512207,-72.533813,166.786011,0.196967,0.057946,0.258739,-4.058755,-3.157355,2.869833
6,213071882,-150.519043,-72.483391,166.698563,0.172812,0.139847,0.257148,-4.003316,-2.911870,2.870063
7,213088549,-150.561234,-72.422813,166.638214,0.114028,0.252654,0.237315,-4.572661,-3.689484,2.750042
8,213105216,-150.582611,-72.362358,166.589951,0.104048,0.099623,0.301604,-2.632665,-3.784341,2.555411
9,213121883,-150.521545,-72.303246,166.511734,0.052293,0.061996,0.282634,0.604364,-3.442642,2.993952
10,213138550,-150.414444,-72.233444,166.410004,0.132071,0.100740,0.305057,2.021912,-3.787184,3.694255
11,213155217,-150.273438,-72.159966,166.295090,0.164910,-0.046878,0.333058,3.306914,-3.841508,4.023390
12,213171884,-150.169510,-72.078819,166.198044,0.117714,-0.072583,0.256335,2.104340,-4.393962,3.980637
13,213188551,-150.146667,-71.995689,166.136307,0.291313,-0.158278,0.264534,-0.742090,-4.814343,3.483206
14,213205218,-150.200912,-71.910530,166.116211,0.286123,-0.184979,0.221182,-2.989348,-5.297590,2.872599
15,213221885,-150.277924,-71.832153,166.120773,0.281339,-0.453833,0.161161,-2.950340,-5.178914,2.268191
16,213238552,-150.349609,-71.756554,166.115646,0.294516,-0.353841,0.204690,-3.182212,-4.945801,2.335129
17,213255219,-150.457886,-71.684242,166.134735,0.228728,-0.352007,0.106880,-3.997669,-5.002148,1.833261
18,213271886,-150.530350,-71.637009,166.148361,0.234070,-0.417688,0.154979,-2.159701,-3.642946,1.172287
19,213288553,-150.544235,-71.625175,166.156647,0.313561,-0.385393,0.228189,1.048987,-1.746607,0.211695
20,213305220,-150.603775,-71.631088,166.203812,0.246901,-0.285082,0.160259,0.525169,-1.181501,-0.953638
21,213321887,-150.624329,-71.655174,166.239014,0.261033,-0.245658,0.194564,2.181402,-0.116679,-1.293429
22,213338554,-150.579407,-71.699249,166.269974,0.155400,-0.249710,0.190326,5.869246,0.965605,-1.811958
23,213355221,-150.523895,-71.736557,166.278214,-0.074233,0.099718,0.181248,5.209272,0.825465,-1.243253
24,213371888,-150.501755,-71.767403,166.297134,-0.017808,0.242743,0.178262,3.816133,0.385439,-1.226912
25,213388555,-150.423492,-71.794579,166.279373,0.046562,0.285030,0.302687,5.095654,0.536593,-0.521872
26,213405222,-150.362213,-71.799934,166.247604,0.003520,0.297636,0.303870,3.275615,-0.476524,0.354755
27,213421889,-150.318375,-71.797707,166.228683,-0.013350,0.239219,0.251193,2.963729,-0.989457,0.370635
28,213438556,-150.258484,-71.788246,166.197357,-0.049805,0.185488,0.205338,3.218754,-1.251001,0.788583
29,213455223,-150.197113,-71.772705,166.163544,0.126564,0.132857,0.281512,3.167939,-1.539042,1.008942
30,213471890,-150.113388,-71.751839,166.136597,0.155500,0.100131,0.254867,4.898090,-1.883405,1.060449
31,213488557,-150.028992,-71.718338,166.099762,0.202345,-0.037834,0.255949,4.377915,-2.445757,1.601498
32,213505224,-149.914047,-71.682419,166.037537,0.166215,-0.032190,0.252428,4.762932,-2.322304,2.089606
33,213521891,-149.835358,-71.631569,166.003723,0.048980,-0.057764,0.182521,4.205849,-3.366380,2.081352
34,213538558,-149.770721,-71.582039,165.969940,0.142194,-0.143591,0.184477,3.367763,-3.291873,2.043407
35,213555225,-149.693008,-71.543541,165.930817,0.156670,-0.110958,0.197271,3.846380,-2.666487,1.801181
36,213571892,-149.600922,-71.512733,165.881561,0.183919,-0.239182,0.202174,4.132680,-2.168525,1.737316
37,213588559,-149.431961,-71.501030,165.775391,0.165180,-0.191676,0.199479,5.508107,-0.623464,2.090297
38,213605226,-149.230316,-71.503441,165.652573,0.142564,-0.108886,0.164072,6.522499,0.275176,1.928003
39,213621893,-149.015442,-71.517662,165.507492,0.184569,-0.056034,0.178750,6.049054,1.105111,1.922502
40,213638560,-148.773483,-71.544426,165.342346,0.137576,0.005618,0.244300,6.529786,1.952552,1.849615
41,213655227,-148.539780,-71.569130,165.188812,0.050365,0.033790,0.266364,6.694668,1.736586,1.709757
42,213671894,-148.316483,-71.594376,165.031250,0.035601,0.030452,0.259532,5.840676,1.809762,1.742656
43,213688561,-148.085953,-71.623680,164.863754,0.087163,0.114837,0.279373,5.708553,2.122569,1.758754
44,213705228,-147.876633,-71.644508,164.707367,-0.003102,0.119613,0.292875,5.065494,1.585881,1.834260
45,213721895,-147.650558,-71.665695,164.532944,0.033160,0.008111,0.322839,5.042967,1.788874,2.099531
46,213738562,-147.425980,-71.689270,164.351456,0.080974,0.048697,0.312436,4.548553,1.986400,2.121378
47,213755229,-147.202347,-71.709755,164.164825,0.195964,0.036605,0.329347,4.199260,1.891876,2.285978
48,213771896,-146.975357,-71.726852,163.972458,0.159309,-0.066508,0.262256,4.071594,1.787863,2.473079
49,213788563,-146.756516,-71.741730,163.798782,0.034994,-0.045753,0.145048,4.647797,1.492439,2.236681
50,213805230,-146.600143,-71.754242,163.675781,0.093360,-0.028750,0.180523,3.785634,0.855285,1.509548
51,213821897,-146.469360,-71.769463,163.577866,0.130409,-0.037105,0.218426,3.679374,0.737908,1.018726
52,213838564,-146.345215,-71.786034,163.484329,0.086301,0.017035,0.251868,3.529014,0.756490,0.902611
53,213855231,-146.255951,-71.799408,163.411011,0.077808,-0.000758,0.291042,2.590155,0.389076,0.687759
54,213871898,-146.185837,-71.813644,163.343369,-0.071280,-0.000580,0.277617,1.764376,0.377192,0.566098
55,213888565,-146.114609,-71.837486,163.263290,-0.064998,-0.019340,0.277206,1.120517,0.982721,0.436479
56,213905232,-145.998795,-71.874138,163.157898,0.028387,-0.093319,0.324949,2.350587,1.881516,0.396056
57,213921899,-145.873352,-71.913445,163.041321,0.066070,-0.049701,0.302880,2.290704,2.131278,0.467886
58,213938566,-145.733429,-71.956581,162.921631,0.035157,-0.015215,0.279258,2.979852,2.351406,0.375617
59,213955233,-145.590195,-72.000977,162.799301,-0.020698,-0.007799,0.268677,3.025513,2.441557,0.359180
60,213971900,-145.479782,-72.051987,162.701904,-0.007805,0.019362,0.233438,2.478292,2.503264,-0.257216
61,213988567,-145.383514,-72.095215,162.607224,0.034708,-0.023758,0.285058,1.782279,2.088287,-0.044528
62,214005234,-145.238220,-72.131020,162.479630,0.068390,0.039326,0.299026,2.844527,2.063340,0.698926
63,214021901,-145.097519,-72.155762,162.358795,0.018471,0.089670,0.269336,2.952299,1.446708,0.964920
64,214038568,-144.964188,-72.167648,162.243240,0.058249,0.046469,0.289215,2.812505,0.761760,1.319182
65,214055235,-144.848236,-72.159500,162.134415,0.009970,0.117421,0.196775,2.153414,-0.292945,1.906481
66,214071902,-144.761597,-72.140862,162.046951,-0.013525,0.161230,0.128489,1.614016,-1.026595,1.947532
67,214088569,-144.711807,-72.110275,161.991852,0.064779,0.121503,0.195794,1.251059,-1.953493,1.877968
68,214105236,-144.688797,-72.064018,161.943100,0.084087,0.104116,0.204414,0.009867,-2.783000,2.325883
69,214121903,-144.660309,-72.007980,161.885345,0.092069,0.067681,0.224428,-0.172668,-3.162835,2.804328
70,214138570,-144.593231,-71.946671,161.795517,0.095965,0.090887,0.249647,0.310535,-3.074344,3.478980
71,214155237,-144.521576,-71.875046,161.699448,-0.030999,0.135720,0.199334,0.232147,-3.500911,3.939330
72,214171904,-144.440674,-71.789444,161.591858,-0.026170,0.126973,0.194016,0.132898,-4.052224,4.613827
73,214188571,-144.339737,-71.693718,161.470428,0.023942,0.230311,0.195573,0.548938,-4.378798,5.190651
74,214205238,-144.275116,-71.584251,161.383072,-0.038385,0.351424,0.194853,0.315363,-5.407649,5.163579
75,214221905,-144.262100,-71.465683,161.344360,-0.132269,0.380879,0.305160,-0.009694,-6.383082,4.744567
76,214238572,-144.336578,-71.316620,161.379196,-0.148911,0.467392,0.343729,-1.076054,-8.692645,4.672730
77,214255239,-144.480331,-71.129929,161.499176,-0.048155,0.543013,0.487829,-0.395345,-11.493450,4.629127
78,214271906,-144.618683,-70.909676,161.646133,-0.189378,0.495592,0.523947,1.450801,-13.464235,5.325480
79,214288573,-144.782700,-70.649445,161.835098,-0.382330,0.458668,0.464447,2.278214,-15.940675,5.977370
80,214305240,-145.002411,-70.362587,162.106476,-0.461568,0.465489,0.404603,3.580449,-18.240236,5.453521
81,214321907,-145.263168,-70.057243,162.449097,-0.527166,0.523268,0.308674,5.110650,-20.049004,4.766594
82,214338574,-145.574631,-69.732750,162.880219,-0.601341,0.544181,0.220751,7.017996,-22.115944,3.735287
83,214355241,-145.900757,-69.374664,163.381119,-0.685134,0.689370,0.312296,10.006030,-24.710737,3.428493
84,214371908,-146.204575,-68.971016,163.909515,-0.830388,0.759646,0.387654,12.817333,-27.428305,4.185186
85,214388575,-146.450638,-68.505440,164.434616,-1.084930,0.913779,0.435371,16.013163,-30.625288,5.994301
86,214405242,-146.647308,-67.955681,164.956390,-1.412032,1.122038,0.443972,18.688330,-34.967121,8.514665
87,214421909,-146.915543,-67.318848,165.553833,-1.312066,1.223148,0.554554,18.472338,-40.484890,9.547235
88,214438576,-147.350586,-66.597816,166.285477,-1.058077,1.258978,0.770516,15.710233,-46.714355,9.077650
89,214455243,-147.940475,-65.789665,167.139328,-1.046941,1.469518,0.954023,12.895742,-53.080132,8.516665
90,214471910,-148.678406,-64.898888,168.101196,-1.186665,1.590100,1.252239,9.595966,-59.177586,7.633279
91,214488577,-149.518005,-63.918289,169.175491,-1.508683,1.653006,1.394155,9.183129,-65.835564,6.374102
92,214505244,-150.472641,-62.822361,170.375320,-1.847120,1.564168,1.260695,8.502246,-74.134697,4.994389
93,214521911,-151.528152,-61.601219,171.657547,-2.220371,1.303291,1.041015,6.161124,-82.529030,4.213756
94,214538578,-152.774155,-60.234905,172.962830,-1.922805,1.046346,1.182963,-4.881041,-91.328506,4.706504
95,214555245,-154.216644,-58.710785,174.232452,-1.079920,1.197705,1.607278,-19.490154,-100.171822,6.256177
96,214571912,-155.720200,-57.142227,175.386826,-0.766166,2.043607,1.913695,-30.075663,-101.906502,6.574210
97,214588579,-157.155441,-55.555965,176.419830,-0.924163,2.062310,1.956671,-33.068748,-102.041115,6.648988
98,214605246,-158.599625,-53.876003,177.394943,-1.866698,2.216143,1.038986,-37.433643,-107.178688,6.743421
99,214621913,-160.124710,-52.084225,178.306107,-2.746977,1.787395,0.199429,-46.389542,-113.289932,7.186562
100,214638580,-161.855209,-50.093346,179.018570,-2.532640,1.931449,-0.104268,-69.090179,-122.773155,13.627757
101,214655247,-163.688171,-47.878361,179.527939,-2.113936,2.269048,0.058607,-85.431305,-133.977921,20.317377
102,214671914,-165.285583,-45.565861,179.803757,-1.316411,1.475544,0.518031,-82.301125,-137.839783,26.295652
103,214688581,-166.057678,-43.332333,179.855942,-1.022360,0.307084,1.187099,-42.639706,-131.509766,31.117298
104,214705248,-165.943268,-41.319168,179.640076,-0.750700,0.044240,1.127382,-0.366729,-116.004143,38.628803
105,214721915,-165.554840,-39.321255,179.194626,-1.831076,1.324231,-0.614947,7.502916,-112.290230,49.374161
106,214738582,-165.876968,-36.995049,178.717712,-2.419238,1.920098,-2.395736,-35.503189,-130.833145,56.357483
107,214755249,-166.815140,-34.468357,178.244217,-1.602434,2.088656,-1.905830,-71.362938,-143.011810,58.316387
108,214771916,-168.090485,-31.910883,177.719574,-0.992025,2.161229,-0.669219,-92.220245,-145.210144,59.170135
109,214788583,-169.727951,-29.282698,177.064270,-0.742343,1.332063,0.033684,-116.714012,-149.394562,63.667301
110,214805250,-171.612183,-26.532949,176.268631,-0.987257,0.788558,0.181071,-133.839172,-157.132843,68.491074
111,214821917,-173.491348,-23.574562,175.306198,-1.161597,0.366027,-1.148223,-135.636719,-170.403122,74.989922
112,214838584,-175.409760,-20.420870,174.070709,-0.841509,0.880849,-2.247671,-141.295395,-182.876266,86.810104
113,214855251,-177.591858,-17.142874,172.637894,0.490221,1.391081,-1.297762,-157.015778,-192.544846,93.337456
114,214871918,179.852203,-13.825920,171.023849,1.214399,1.616053,0.531677,-177.606552,-198.346237,97.319450
115,214888585,177.026855,-10.512905,169.188385,2.013173,1.454494,1.151640,-191.116211,-202.852036,102.278351
116,214905252,174.138397,-7.281927,167.080551,2.420993,0.416861,0.710535,-191.238586,-204.117508,109.708839
117,214921919,171.493179,-4.208995,164.729401,1.981852,-1.598500,-0.727474,-171.209137,-201.683075,116.248978
118,214938586,169.407959,-1.426932,162.071228,1.594348,-3.014283,-2.898887,-131.350693,-192.224152,129.424149
119,214955253,168.145477,0.958437,159.203903,1.728570,-3.628031,-2.784222,-74.883774,-175.044235,140.899490
120,214971920,167.983978,2.950873,156.284897,1.824348,-4.531690,-2.109115,-2.189384,-154.330032,146.523346
121,214988587,168.850891,4.530971,153.255508,3.359647,-4.474004,-1.192517,65.359764,-130.457413,158.632446
122,215005254,170.346497,5.802852,150.255875,3.832947,-4.614302,-0.781532,107.403046,-108.578148,162.510757
123,215021921,171.986221,6.802282,147.393829,3.816207,-5.301952,-0.581603,118.680710,-86.610580,159.437592
124,215038588,173.386673,7.529889,144.819641,2.942792,-5.262869,0.132442,104.732460,-63.938065,146.426529
125,215055255,174.198181,8.016664,142.716660,1.852328,-3.889644,1.010325,67.190529,-43.666534,121.109787
126,215071922,174.335861,8.398108,141.281952,1.441890,-2.628527,0.476550,21.978266,-32.384247,82.467316
127,215088589,173.918686,9.062579,140.608932,2.956501,-1.132686,-0.720864,-17.475485,-44.834702,35.603394
128,215105256,173.076218,9.899672,140.624847,3.154797,-0.835507,-0.123901,-49.276604,-50.877312,-6.645040
129,215121923,172.983643,10.555478,141.059219,0.777784,-2.020725,0.549354,-8.751407,-37.015152,-30.255659
130,215138590,173.740814,10.780545,141.533646,0.085939,-2.977923,1.294479,41.585815,-11.243531,-29.372334
131,215155257,174.733734,10.781292,141.823700,0.849506,-3.094606,-0.271269,57.735008,0.614809,-17.036808
132,215171924,176.190491,10.344220,142.038651,2.353009,-0.934619,-0.618179,86.447639,26.097176,-10.587291
133,215188591,177.773911,9.685039,142.181458,2.642035,0.773569,0.968417,94.922607,38.901264,-6.367963
134,215205258,179.139435,9.046523,142.329727,2.593542,0.892962,1.788947,81.899559,37.499950,-7.767659
135,215221925,179.920303,8.594450,142.603287,2.251958,-0.000661,1.704595,45.760632,26.228065,-16.023643
136,215238592,179.957520,8.321329,143.024063,1.521353,-0.926908,1.714135,-0.048139,15.391836,-24.981434
137,215255259,179.853104,7.974741,143.582642,0.655860,-1.431172,1.174386,-9.584031,19.834387,-33.169834
138,215271926,-179.813263,7.306306,144.269562,0.135479,-1.731072,0.789961,15.966117,39.080284,-40.892910
139,215288593,-178.987869,6.292433,145.135040,0.162992,-2.379743,0.365285,44.793427,59.280994,-52.226944
140,215305260,-177.954391,4.927802,146.282669,0.434259,-2.901163,1.330292,56.683674,79.015167,-70.721291
141,215321927,-176.788254,3.170274,147.738373,0.851614,-3.998966,2.202369,65.193855,100.343231,-91.905342
142,215338594,-175.627396,1.051362,149.466141,1.760874,-5.118821,2.421848,67.207726,119.007484,-111.822891
143,215355261,-174.577408,-1.254937,151.411041,2.880465,-5.915191,0.517175,64.564178,126.920670,-128.137131
144,215371928,-173.872787,-3.621186,153.466919,3.303796,-4.779864,-0.873741,48.869987,127.877274,-136.965958
145,215388595,-173.714432,-5.905170,155.615036,3.205086,-4.288797,-0.675261,21.543932,121.385765,-142.576706
146,215405262,-174.137039,-8.047105,157.756378,3.055775,-3.906794,-0.106733,-8.415073,113.348396,-140.494247
147,215421929,-174.960800,-10.125971,159.894928,2.688725,-4.035507,0.286953,-27.831242,111.192200,-138.067963
148,215438596,-176.058685,-12.137167,162.038010,2.888454,-2.947943,0.125845,-39.727955,109.494637,-135.324539
149,215455263,-177.387009,-14.029504,164.175919,2.709709,-1.688373,-0.978514,-49.350143,105.291931,-131.336197
150,215471930,-178.712753,-15.879027,166.264160,2.243708,-0.760106,-1.385831,-45.906986,105.875854,-124.864082
151,215488597,179.983627,-17.701097,168.273056,1.921749,-0.504869,-1.412453,-42.099316,107.131378,-116.711693
152,215505264,178.645233,-19.516287,170.169083,1.341473,-1.392057,-1.149014,-42.703175,109.291496,-106.617661
153,215521931,177.456818,-21.367876,171.924194,0.849279,-0.573519,-1.106182,-33.235394,113.487885,-94.956528
154,215538598,176.346161,-23.215237,173.569214,0.106055,-0.335224,-1.260525,-27.913452,114.717957,-85.321182
155,215555265,175.317383,-25.001404,175.090073,0.073084,0.289136,-1.093809,-23.169758,112.041214,-75.406746
156,215571932,174.275223,-26.731085,176.546371,0.470655,-0.059020,-1.475027,-23.123993,109.582802,-69.014519
157,215588599,173.119034,-28.453403,177.918518,1.056586,-0.732071,-1.177320,-29.952822,109.823463,-61.307793
158,215605266,172.048553,-30.286797,179.138351,0.838881,-0.730236,-0.911608,-27.048784,116.418182,-49.183567
159,215621933,171.197952,-32.327972,-179.802582,0.378299,-0.822735,-1.405414,-16.732176,128.176163,-36.008469
160,215638600,170.473541,-34.469547,-178.880875,-0.224474,-0.547583,-1.643437,-11.738376,133.311737,-25.259562
161,215655267,169.737213,-36.570358,-178.014694,-0.629187,-0.667318,-1.599281,-12.698616,130.544769,-20.160917
162,215671934,169.303452,-38.689621,-177.155182,-0.569820,-1.254120,-1.582088,6.748859,131.562836,-17.190159
163,215688601,169.524368,-41.019543,-176.378738,-0.579525,-0.288554,-1.129226,44.392685,143.082260,-9.638235
164,215705268,170.386276,-43.533821,-175.617615,-1.038949,-0.550140,-0.835113,83.717125,153.530136,-7.135009
165,215721935,171.782959,-46.275524,-174.946136,-1.694009,-0.523747,-0.452638,113.523392,166.024506,-2.883300
166,215738602,173.399429,-49.140018,-174.299850,-2.853961,-1.883761,-0.483088,126.956413,172.876633,-3.911412
167,215755269,175.370529,-51.924824,-173.764236,-2.137519,-1.047087,0.626607,144.361237,167.345932,-4.193751
168,215771936,177.228027,-54.474133,-173.322449,-1.675874,1.427945,1.047243,133.974365,152.709167,-6.196659
169,215788603,178.658203,-56.803417,-172.837082,-1.906635,3.053972,0.626814,111.165726,139.283890,-11.632714
170,215805270,179.126190,-58.750938,-172.147705,-2.659163,3.568816,0.537775,64.409416,116.266579,-20.006277
171,215821937,178.822830,-60.332619,-171.265961,-2.560743,2.583160,1.317515,28.756439,94.363777,-25.317245
172,215838604,178.283813,-61.716797,-170.405197,-2.432421,2.789923,1.677270,14.200578,82.647789,-23.105356
173,215855271,177.830429,-63.002323,-169.657333,-2.212671,3.118376,1.668200,13.915239,76.776329,-18.370228
174,215871938,177.659515,-64.325607,-169.033859,-2.305398,3.400419,1.324023,24.644875,78.968063,-13.627048
175,215888605,177.495239,-65.556602,-168.488464,-3.025427,4.000980,0.811472,21.167503,73.349014,-10.879708
176,215905272,177.137466,-66.580505,-167.976837,-3.401562,3.767785,0.961831,7.978689,60.915508,-9.699112
177,215921939,176.747253,-67.434853,-167.559464,-3.146493,3.810150,0.876633,1.031196,50.663532,-7.154013
178,215938606,176.254578,-68.092842,-167.173950,-2.136524,3.576773,1.165492,-6.753043,38.888802,-6.431436
179,215955273,175.979507,-68.682503,-166.926498,-1.277235,3.257679,1.374720,-1.301502,34.608360,-3.149069
180,215971940,176.067825,-69.254845,-166.765396,-1.339225,3.266042,0.971188,15.721232,33.438988,-1.154203
181,215988607,176.460083,-69.805862,-166.689056,-1.642002,2.476295,0.713776,29.229860,32.036507,0.494437
182,216005274,177.039688,-70.285202,-166.734268,-2.214538,1.913582,0.380008,33.633080,27.597208,2.503409
183,216021941,177.545227,-70.635597,-166.911377,-2.210763,1.461985,0.410869,21.722145,19.759453,4.501740
184,216038608,177.973633,-70.906067,-167.213257,-1.067404,1.415776,0.724408,10.011743,14.904350,6.560772
185,216055275,178.309631,-71.142097,-167.550232,0.025763,1.576399,0.928224,2.449914,12.862560,7.002192
186,216071942,178.593079,-71.372719,-167.846375,0.284009,1.405757,0.878206,1.591875,12.600067,6.058899
187,216088609,178.473724,-71.623749,-167.847260,-0.574158,1.258535,0.162146,-5.801576,13.980145,0.385708
188,216105276,178.560577,-71.745445,-168.067108,-1.209813,0.845228,0.095982,-5.900784,6.113465,4.321075
189,216121943,178.888702,-71.813499,-168.437500,-0.998836,0.653173,0.126366,-0.010399,2.845648,7.029970
190,216138610,179.495743,-71.943832,-168.884979,-0.278734,-0.070339,0.529205,12.317063,6.618104,8.455804
191,216155277,-179.452225,-72.253609,-169.342575,0.228245,-0.025144,0.670957,38.405418,17.507450,8.427932
192,216171944,-178.348160,-72.601898,-169.718582,-0.438451,0.467136,0.190023,46.146358,19.940083,6.404647
193,216188611,-177.589676,-72.803726,-170.017792,-1.080186,0.370277,-0.008207,29.780678,11.209547,4.903076
194,216205278,-177.172318,-72.888840,-170.211105,-0.923549,0.100653,0.152740,15.370033,4.170141,3.184705
195,216221945,-177.138779,-72.894302,-170.256516,-0.178324,-0.056985,0.571548,0.822763,-0.718385,0.785317
196,216238612,-177.420166,-72.855331,-170.172791,0.415947,0.164149,0.783806,-10.670678,-3.497967,-1.365145
197,216255279,-177.843521,-72.767899,-169.974503,0.384815,0.065766,0.764291,-12.624045,-6.476367,-3.294499
198,216271946,-178.275345,-72.644814,-169.732391,-0.441194,0.306793,0.419748,-10.627511,-8.616655,-4.064482
199,216288613,-178.237457,-72.518356,-169.823318,-1.311312,0.375242,-0.085506,-1.520882,-8.619880,1.865713
200,216305280,-178.431030,-72.182594,-169.700089,-1.350244,1.080652,0.064444,-3.155234,-21.298466,-1.650472
201,216321947,-178.693085,-71.817299,-169.502335,-0.776683,0.626776,0.529013,-3.024110,-23.097038,-3.105674
202,216338614,-178.699081,-71.508057,-169.375748,-0.482145,0.668178,0.798957,8.264021,-19.701859,-1.954368
203,216355281,-178.567017,-71.190109,-169.234146,-0.624686,0.873172,0.804996,17.388908,-20.231804,-2.245689
204,216371948,-178.353226,-70.806465,-169.141815,-0.986305,1.485822,0.590839,19.481808,-24.157644,-1.165535
205,216388615,-178.135376,-70.341606,-169.063797,-1.533170,1.902324,0.373399,18.900494,-29.029581,-0.675346
206,216405282,-178.180054,-69.693314,-168.984573,-1.686609,2.153661,0.219519,3.207362,-40.033390,-0.338858
207,216421949,-178.484329,-68.881668,-168.849777,-1.237321,1.905048,0.718927,-9.269870,-49.866123,-1.398492
208,216438616,-178.721222,-68.014160,-168.765350,-0.972589,1.871408,0.997547,-8.077212,-53.189903,-0.540113
209,216455283,-178.818069,-67.089546,-168.772354,-1.067146,1.918133,0.948511,-4.773544,-56.573814,1.409912
210,216471950,-178.711075,-66.117294,-168.866867,-1.548538,1.874849,0.623039,2.645530,-59.383522,3.574194
211,216488617,-178.514694,-65.052063,-169.048203,-2.117465,2.202595,0.287725,3.308384,-64.900276,6.116769
212,216505284,-178.454208,-63.818268,-169.270233,-2.589316,2.612006,0.377032,-6.950620,-74.970039,7.786808
213,216521951,-178.595078,-62.420643,-169.468887,-2.447878,2.438829,0.905051,-17.638359,-84.817978,7.639331
214,216538618,-178.877426,-60.890606,-169.617844,-2.209224,2.495178,1.244548,-23.355930,-92.819702,6.368517
215,216555285,-179.137070,-59.291145,-169.754913,-2.055351,2.021123,1.387007,-21.249889,-97.023552,5.872895
216,216571952,-179.318024,-57.655617,-169.980453,-2.260924,2.004394,1.216127,-20.928591,-99.174011,8.514797
217,216588619,-179.448700,-55.944744,-170.325378,-2.593167,2.072510,0.972736,-23.685747,-103.676437,12.557958
218,216605286,-179.539658,-54.131886,-170.771133,-2.829124,2.231729,0.557001,-25.897470,-109.794052,16.413759
219,216621953,-179.616669,-52.192234,-171.269699,-2.827298,2.345368,0.187342,-27.071970,-117.413071,18.924206
220,216638620,-179.632126,-50.146633,-171.830032,-2.353015,1.899553,0.251592,-25.621357,-123.775856,22.023788
221,216655287,-179.360001,-48.091095,-172.468826,-1.684251,0.962337,0.686687,-11.147076,-124.294502,26.310555
222,216671954,-178.608795,-46.170071,-173.177567,-1.501712,-0.484590,0.674562,15.412667,-115.924568,31.111181
223,216688621,-177.536667,-44.386074,-173.986496,-1.008941,-1.558907,0.831574,31.348923,-107.029205,37.870819
224,216705288,-176.051819,-42.672348,-174.767395,-1.467745,-2.666929,0.050791,58.328171,-101.967270,39.797821
225,216721955,-174.552338,-40.963779,-175.572464,-0.824715,-1.607604,-0.671122,59.262745,-100.431442,44.395512
226,216738622,-173.434113,-39.227200,-176.265564,0.305542,-0.641838,0.006631,41.812019,-101.506821,42.655685
227,216755289,-172.635147,-37.553181,-176.864624,0.330412,0.965673,-0.164454,27.119749,-97.494400,40.255409
228,216771956,-172.138794,-35.801994,-177.416885,-0.633162,1.506446,-1.197438,11.499806,-101.834267,40.371342
229,216788623,-171.868057,-33.922806,-177.970062,-0.909963,-0.776800,-1.412693,-1.210528,-109.076836,42.766911
230,216805290,-171.836151,-31.954395,-178.580627,-0.933042,-1.797078,-0.930926,-16.486588,-113.770096,47.278549
231,216821957,-172.019592,-29.870064,-179.244431,-0.791971,-1.476769,-0.202338,-29.950212,-120.245056,51.488518
232,216838624,-172.384094,-27.679281,179.968262,-0.449115,0.472379,-0.002696,-43.097050,-125.840981,58.946369
233,216855291,-173.085861,-25.287666,179.120667,-0.429167,1.644076,-0.563281,-63.264519,-137.821136,63.381882
234,216871958,-174.228165,-22.644205,178.215683,-0.526875,1.810169,-0.856040,-89.061378,-153.392776,66.914391
235,216888625,-175.946259,-19.663019,177.199814,-0.102568,1.535061,-0.825753,-123.530022,-174.593094,72.028946
236,216905292,-178.227509,-16.453396,175.955032,0.313676,0.262274,-0.537214,-158.454590,-189.976074,80.774475
237,216921959,179.033920,-13.153563,174.381332,0.929734,-0.518321,0.140443,-186.854950,-198.606384,92.739479
238,216938626,176.214508,-9.880515,172.444016,1.616681,-0.583029,-0.326758,-190.784698,-202.197342,105.707039
239,216955293,173.639771,-6.774553,170.151581,2.230603,-0.737145,-1.652557,-172.827591,-198.911392,119.114510
240,216971960,171.543488,-3.956026,167.582062,2.705620,-1.277807,-2.612902,-138.633926,-188.725662,130.420975
241,216988627,170.176727,-1.389474,164.842361,3.133367,-2.460507,-2.755285,-88.141113,-179.338608,137.652161
242,217005294,169.755844,0.848424,162.052231,3.477201,-3.510168,-2.105582,-24.549374,-162.591644,141.432755
243,217021961,170.317032,2.782802,159.155823,4.209849,-3.444273,-1.709075,40.633228,-145.557709,150.969772
244,217038628,171.618744,4.522152,156.298141,5.089893,-3.630019,-1.085242,90.455910,-131.110260,152.587418
245,217055295,173.188034,6.032605,153.587357,4.979927,-3.991683,-1.241427,110.532585,-112.406723,148.537430
246,217071962,174.623489,7.232480,151.270554,2.446362,-5.332036,-0.834582,103.593880,-87.391617,129.634247
247,217088629,176.090057,7.927776,149.346924,1.476365,-4.240459,0.991588,104.617630,-51.977619,110.638123
248,217105296,176.982819,8.483595,147.880600,2.111688,-1.317681,2.480036,67.514252,-39.671734,84.883072
249,217121963,177.288361,9.177020,146.899872,3.144769,0.228132,1.946831,28.756531,-45.572250,55.973896
250,217138630,176.947357,10.062595,146.400116,2.866842,-0.407569,0.901595,-14.048265,-55.656849,26.833067
251,217155297,176.193970,10.996327,146.171021,1.443324,-2.075755,1.004069,-41.285065,-57.825447,10.116643
252,217171964,175.454834,11.776451,145.962021,0.390899,-3.137670,0.931892,-40.470551,-48.662785,8.830802
253,217188631,175.143005,12.247960,145.684158,0.483311,-2.588057,0.625001,-13.849311,-30.608711,13.911799
254,217205298,175.463181,12.325699,145.428406,0.730209,-1.613308,0.497830,23.855936,-6.946594,14.538571
255,217221965,176.300385,12.118670,145.355011,1.173334,-0.808408,-0.207283,52.540524,11.015730,5.163489
256,217238632,177.269516,11.862982,145.575256,1.720840,-0.034116,-0.710610,56.777821,14.982652,-12.068537
257,217255299,178.163254,11.593479,146.016373,1.649468,-0.236560,0.393032,49.622654,16.136057,-25.272926
258,217271966,178.830246,11.391380,146.459961,1.671496,-0.407134,0.084137,36.099041,11.757617,-25.778679
259,217288633,179.371628,11.107300,146.774200,1.449746,-0.644625,0.591826,30.190346,16.290398,-18.245073
260,217305300,179.992188,10.711615,147.005829,1.236307,-0.727521,0.695630,35.988892,22.779932,-13.540222
261,217321967,-179.142380,10.171045,147.329987,1.316497,-0.240238,0.138817,49.785725,31.259771,-19.391970
262,217338634,-178.116257,9.454790,147.882706,1.194093,-0.425247,0.030747,57.301079,41.154259,-33.724136
263,217355301,-177.050156,8.501792,148.686859,1.131099,-0.591298,0.195395,57.820839,54.095589,-50.054192
264,217371968,-176.002869,7.295935,149.720642,1.357871,-1.364184,0.296091,55.696491,67.475571,-65.739288
265,217388635,-174.989578,5.821185,150.953537,1.639957,-2.447144,0.492508,53.726036,81.424774,-80.243179
266,217405302,-173.951050,4.166347,152.399994,2.517953,-3.714515,0.029160,56.126709,89.487579,-95.660515
267,217421969,-172.823944,2.436457,154.036926,3.529638,-4.180185,-0.981944,63.326107,90.813454,-109.396996
268,217438636,-171.529404,0.597397,155.736359,3.533115,-3.270393,-1.590325,76.315628,94.459061,-116.054016
269,217455303,-170.396454,-1.224377,157.394180,3.353533,-2.134473,-1.326732,69.856956,91.357262,-115.461395
270,217471970,-169.789398,-2.912633,159.150879,2.441811,-1.830894,-0.720447,41.563377,80.703552,-121.254898
271,217488637,-169.823898,-4.443622,161.044708,2.398558,-1.827309,0.833651,6.554531,69.390396,-127.929359
272,217505304,-170.331757,-5.863242,163.008896,2.756369,-1.927259,0.795308,-18.551849,62.734447,-130.368530
273,217521971,-171.191742,-7.273907,164.969513,3.072187,-2.417839,0.007054,-36.814224,63.845131,-129.014572
274,217538638,-172.134171,-8.723415,166.882812,3.046507,-2.485697,-0.541698,-39.251732,68.642860,-125.172462
275,217555305,-172.970764,-10.263994,168.764252,2.245246,-2.696181,-0.245134,-30.267544,76.306686,-122.468231
276,217571972,-173.568146,-11.841633,170.641678,1.354239,-3.411612,0.527884,-12.953582,80.137138,-120.981117
277,217588639,-173.828232,-13.563622,172.450638,0.846974,-3.662790,0.731617,9.536572,90.162010,-116.683716
278,217605306,-173.882233,-15.491738,174.130157,0.870679,-2.834026,0.195906,23.296259,103.666977,-109.487305
279,217621973,-173.934418,-17.553741,175.617310,0.964546,-1.028697,-0.595993,23.491699,113.028389,-98.316963
280,217638640,-174.140854,-19.769840,176.974091,1.162385,-1.642560,-0.449514,14.907765,123.318794,-90.654816
281,217655307,-174.558197,-22.165255,178.213470,0.820306,-1.667457,0.184891,2.812941,135.272171,-83.397530
282,217671974,-174.984467,-24.636545,179.361679,0.124120,-0.433064,-0.117483,3.025512,140.980194,-76.631416
283,217688641,-175.520584,-27.069071,-179.593414,-0.596260,-0.097842,-0.309315,-3.585418,139.859238,-68.468613
284,217705308,-176.094971,-29.391062,-178.648651,-0.714153,-0.604669,-0.740438,-6.404895,134.369827,-60.162514
285,217721975,-176.602600,-31.641172,-177.859940,-0.742015,0.384604,-0.341709,-5.181411,131.205231,-49.457638
286,217738642,-177.039902,-33.757301,-177.168259,-0.982295,1.663950,-0.129939,-2.567047,123.900574,-42.088612
287,217755309,-177.475403,-35.725159,-176.446060,-1.256521,0.886663,0.573865,-0.176007,115.292213,-41.393917
288,217771976,-177.613022,-37.607468,-175.778030,-1.662185,0.933798,0.648831,16.943340,110.510612,-37.139355
289,217788643,-177.540436,-39.315968,-175.260452,-1.871283,0.987708,0.462962,24.940287,100.435928,-28.809069
290,217805310,-177.139923,-40.937885,-174.984894,-1.895135,0.646627,0.289725,35.963982,95.661209,-17.324972
291,217821977,-176.385422,-42.610401,-174.906815,-1.766883,0.799460,-0.055866,49.672020,99.021156,-9.336568
292,217838644,-175.371918,-44.313934,-175.029877,-1.560147,2.172221,-0.243589,57.017349,101.351021,-2.182332
293,217855311,-174.267563,-45.957497,-175.276596,-1.859721,2.308999,-0.077346,57.066521,98.164543,1.319133
294,217871978,-172.901489,-47.548672,-175.650406,-2.348830,1.780617,-0.160367,66.933304,95.594734,4.431830
295,217888645,-171.331329,-49.076298,-176.277313,-2.731531,2.714848,-0.722274,67.435440,93.215599,12.041988
296,217905312,-169.653259,-50.544178,-177.083481,-2.578341,2.155073,-0.478267,65.058510,91.000160,16.080807
297,217921979,-168.243835,-51.882454,-178.034286,-2.438581,1.932719,-0.065545,41.432343,84.628922,19.532665
298,217938646,-167.082718,-53.105759,-179.042313,-2.059411,1.718741,0.958564,23.033096,78.534019,20.150507
299,217955313,-166.013596,-54.283092,179.876816,-1.655986,1.584951,1.739386,13.237176,76.591492,20.777740
300,217971980,-164.954468,-55.430882,178.718338,-1.672169,1.616846,1.534270,8.067402,75.648773,21.344267
301,217988647,-163.861984,-56.529884,177.435715,-1.591971,1.840692,1.346425,3.125283,74.031509,23.628531
302,218005314,-162.703934,-57.589951,176.123734,-1.632223,1.953017,1.245276,4.788756,72.171608,22.586599
303,218021981,-161.715775,-58.455746,174.818588,-2.155346,2.721781,0.607765,-5.761138,61.072090,23.512318
304,218038648,-160.859024,-59.155613,173.605057,-2.244330,2.319904,0.262014,-9.498782,50.805725,22.154791
305,218055315,-160.189148,-59.687206,172.538834,-2.480168,1.954149,0.234108,-13.497828,39.852425,19.965807
306,218071982,-159.770584,-60.047245,171.653946,-2.184976,1.772679,0.494020,-19.413927,28.345768,17.574780
307,218088649,-159.357361,-60.359360,170.923157,-1.355342,1.427415,0.911537,-11.864110,24.074896,13.815182
308,218105316,-158.945496,-60.643421,170.368149,-1.173620,1.087940,1.065017,-2.877439,20.677549,9.201194
309,218121983,-158.575928,-60.895405,169.939987,-1.242932,1.079054,0.995852,1.152297,17.547415,6.164837
310,218138650,-158.251038,-61.123146,169.614059,-1.342948,1.124500,0.849696,3.785393,15.100286,3.740175
311,218155317,-158.167511,-61.261089,169.457977,-1.594823,1.290612,0.435349,-1.796552,8.264982,1.077251
312,218171984,-158.264679,-61.321117,169.456177,-1.318155,1.433243,0.548917,-4.523485,2.262863,-1.322384
313,218188651,-158.503342,-61.311741,169.625717,-0.815609,1.241811,0.814503,-3.994282,-3.424604,-4.359365
314,218205318,-158.748932,-61.244442,169.843933,-0.514874,1.308308,0.814571,-1.849532,-7.160084,-4.409356
315,218221985,-158.933487,-61.137100,170.088455,-0.562133,1.282005,0.524028,3.186605,-9.665224,-4.284840
316,218238652,-159.208633,-60.981728,170.433487,-0.742119,1.164356,0.433337,3.014944,-13.391496,-6.037533
317,218255319,-159.218765,-60.858414,170.563354,-0.393373,0.332740,0.168694,7.611477,-9.369706,-0.920137
318,218271986,-159.908234,-60.516808,171.254715,-0.630718,1.517099,0.680514,-3.789462,-27.406548,-11.877262
319,218288653,-160.412354,-60.248627,171.797974,-0.178893,0.107219,0.852283,-0.497566,-21.714052,-9.688790
320,218305320,-160.711639,-60.076111,172.270615,-0.256065,0.050187,0.844311,8.054289,-15.564028,-9.858508
321,218321987,-160.989288,-59.947746,172.793365,-0.185695,-0.134532,0.718872,11.919919,-13.530686,-12.279605
322,218338654,-161.432190,-59.804562,173.449493,-0.420459,-0.263210,0.596177,8.889872,-15.609051,-15.934242
323,218355321,-161.956650,-59.690979,174.208008,-0.634626,-0.690233,0.544472,9.258469,-14.784658,-19.625509
324,218371988,-162.436981,-59.642990,174.928726,-0.337724,-0.233008,0.645802,9.915203,-10.535372,-19.911919
325,218388655,-162.870605,-59.633377,175.665543,0.054126,0.146594,0.634446,13.540507,-8.330653,-21.158497
326,218405322,-163.370117,-59.611828,176.500671,-0.011828,0.012312,0.537970,14.669450,-9.712097,-23.871326
327,218421989,-163.947769,-59.589458,177.403549,-0.265395,-0.015407,0.433311,13.481136,-10.116493,-25.927816
328,218438656,-164.656952,-59.537743,178.335831,-0.466531,0.300858,0.141269,7.090161,-11.771132,-26.438894
329,218455323,-165.471878,-59.418392,179.280960,-0.444749,0.280425,0.032508,1.369394,-15.461040,-25.979143
330,218471990,-166.303391,-59.257008,-179.792801,-0.110317,0.730607,0.087977,-0.669134,-17.420431,-25.121643
331,218488657,-167.180222,-59.043713,-178.887314,0.192568,1.233703,0.248809,-4.549267,-19.965439,-24.175402
332,218505324,-168.013855,-58.791023,-178.046844,0.019867,1.242050,0.409021,-5.408819,-21.515255,-22.160160
333,218521991,-168.748093,-58.517757,-177.297943,-0.706124,1.251562,0.302822,-4.255383,-21.880842,-19.578802
334,218538658,-169.358139,-58.221340,-176.666901,-1.181564,1.212170,0.204567,-2.939193,-22.347589,-16.098406
335,218555325,-169.887161,-57.898148,-176.117264,-1.188882,1.405238,0.140212,-2.326868,-23.333395,-13.643625
336,218571992,-170.372452,-57.532719,-175.608795,-0.976058,1.403072,0.265010,-1.894910,-25.516956,-12.263997
337,218588659,-170.789810,-57.130737,-175.140335,-0.731532,1.503790,0.534744,0.054779,-27.399105,-10.984667
338,218605326,-171.094055,-56.710239,-174.696045,-0.695931,1.618117,0.766114,5.520566,-28.328409,-10.353846
339,218621993,-171.289688,-56.244732,-174.309204,-1.361877,1.933592,0.333093,9.054912,-30.687204,-8.342766
340,218638660,-171.433838,-55.670036,-173.951935,-2.035423,1.933240,-0.002775,10.556835,-37.018661,-6.626963
341,218655327,-171.497849,-54.998161,-173.601654,-2.031066,1.630294,-0.026854,14.897267,-42.772243,-5.774694
342,218671994,-171.438385,-54.283394,-173.233978,-1.771951,0.935429,0.417924,23.016571,-45.441807,-6.190749
343,218688661,-171.219955,-53.512695,-172.928772,-1.539914,1.020876,0.661445,29.363138,-48.479469,-3.619947
344,218705328,-170.895172,-52.691933,-172.669800,-1.543054,1.264916,0.681132,33.376637,-51.242016,-1.480101
345,218721995,-170.746201,-51.710690,-172.445541,-2.187113,1.905999,-0.035851,21.039993,-60.582371,1.335613
346,218738662,-170.940094,-50.532181,-172.241394,-1.945799,1.844512,-0.166038,-0.619762,-72.185631,3.755858
347,218755329,-171.365646,-49.247120,-172.040726,-1.663282,1.057182,0.184121,-14.839602,-78.537750,4.292311
348,218771996,-171.905350,-47.928127,-171.968094,-1.232321,1.236551,0.542176,-27.622486,-79.878937,8.761437
349,218788663,-172.361710,-46.636799,-172.024582,-0.738489,1.470619,0.955867,-28.373770,-77.603508,12.984325
350,218805330,-172.677795,-45.347450,-172.218399,-0.774350,1.963188,0.541391,-25.825909,-76.821243,18.185566
351,218821997,-172.924881,-43.977089,-172.505569,-1.118709,2.065982,-0.003497,-25.426680,-81.209129,22.569906
352,218838664,-173.039459,-42.559628,-172.816498,-1.260735,0.753026,-0.155621,-18.144493,-83.924889,23.985346
353,218855331,-173.015472,-41.160667,-173.230179,-0.929505,0.690849,-0.264945,-13.603534,-82.251167,28.651480
354,218871998,-172.897919,-39.770004,-173.714157,-0.813584,0.394041,0.218524,-10.265448,-81.285194,32.264534
355,218888665,-172.749878,-38.341618,-174.332977,-0.453927,1.286619,0.409863,-12.983622,-82.616684,39.419582
356,218905332,-172.737274,-36.730057,-174.994247,-0.885203,1.866145,-0.577026,-21.884268,-93.133804,43.531643
357,218921999,-172.876892,-34.942043,-175.696106,-0.686286,1.355898,-0.830214,-31.490759,-103.353256,47.411900
358,218938666,-172.989853,-33.149761,-176.295959,-0.481861,-1.173633,0.062154,-25.379730,-104.247292,42.932827
359,218955333,-172.950775,-31.443951,-176.911835,-0.603345,-1.170792,0.051802,-15.854277,-98.956871,43.624298
360,218972000,-172.740860,-29.776155,-177.636154,-0.309110,-0.318204,0.547228,-7.994252,-95.836334,49.664188
361,218988667,-172.445251,-28.084471,-178.433136,-0.000449,0.618112,0.624671,-3.857913,-96.467438,54.671883
362,219005334,-172.103577,-26.393944,-179.170013,-0.778856,-0.846294,1.000519,1.803787,-96.436241,52.671787
363,219022001,-171.506042,-24.781063,-179.843185,-2.152494,-1.975802,2.494472,19.943798,-91.806129,49.926952
364,219038668,-170.455811,-23.313122,179.385361,-1.974830,-1.018599,4.397786,45.677628,-81.587349,55.626842
365,219055335,-169.552994,-21.808115,178.544891,-1.219657,-0.297622,2.971905,36.342636,-82.081779,61.603848
366,219072002,-169.330124,-20.271832,177.562241,-0.812472,1.544119,1.196615,-6.272144,-81.773155,71.051369
367,219088669,-170.199768,-18.621992,176.582031,0.089383,2.321112,1.065785,-70.227135,-88.807610,72.228935
368,219105336,-171.881149,-16.934727,175.556320,0.333421,1.617804,1.625819,-118.129227,-92.125977,73.716644
369,219122003,-174.139389,-15.160951,174.429565,0.168972,-0.010736,1.620289,-152.627716,-98.987236,77.493172
370,219138670,-176.658997,-13.258847,173.120880,-0.018056,-1.107228,1.119982,-168.894760,-108.916603,85.073845
371,219155337,-179.101120,-11.230468,171.545227,-0.294046,0.065654,-1.003640,-165.025375,-119.467697,96.856209
372,219172004,178.409302,-9.072711,169.670181,0.272398,1.419673,-1.755819,-167.653305,-131.400772,109.979340
373,219188671,175.552551,-6.733232,167.601471,1.273707,1.527094,-0.934495,-186.906509,-147.923187,115.393776
374,219205338,172.390457,-4.158765,165.325180,1.236354,-0.124696,-1.080621,-201.109634,-169.166992,118.987541
375,219222005,169.560806,-1.751197,162.906372,0.877151,-2.625496,-1.558834,-175.695999,-166.664902,120.468391
376,219238672,167.654205,0.198870,160.363235,0.750444,-3.211308,-3.051409,-114.938316,-146.087936,126.416161
377,219255339,166.839828,1.741386,157.695328,0.901682,-2.141238,-4.415450,-44.669361,-126.840523,135.617554
378,219272006,167.130142,3.010597,155.062698,1.896068,-2.134423,-3.019253,25.416130,-110.977455,136.557678
379,219288673,168.043259,4.151940,152.519836,2.964012,-2.793018,-1.922112,65.744934,-100.845375,133.936523
380,219305340,169.035553,5.269133,150.044357,2.221549,-4.002191,-2.411038,73.148132,-96.325752,131.708145
381,219322007,170.021866,6.257630,147.669617,1.891532,-4.209095,-1.542612,74.882530,-85.291985,128.577835
382,219338674,170.673981,7.147841,145.501144,2.075531,-3.728348,0.691923,55.696690,-75.512360,118.391792
383,219355341,171.042404,8.026168,143.642807,2.182934,-2.694823,1.290374,38.199593,-70.765236,100.707756
384,219372008,170.947662,8.938457,142.231018,1.962631,-1.678570,1.179809,8.177655,-68.337448,74.142914
385,219388675,170.360809,9.870176,141.307297,0.792176,-1.874389,-0.476757,-24.787266,-65.192001,44.839199
386,219405342,169.549377,10.621392,140.794388,0.284254,-1.787140,-1.087914,-41.850376,-50.808788,21.923708
387,219422009,169.011475,11.091010,140.640274,0.687983,-1.395602,-0.000128,-29.179029,-30.513590,3.648584
388,219438676,168.970856,11.339120,140.652039,0.205661,-1.685203,0.029297,-1.224506,-15.613234,-3.555648
389,219455343,169.453613,11.290858,140.777863,0.297034,-1.791199,0.195622,28.828562,3.101317,-6.761236
390,219472010,170.027054,11.101970,140.934128,0.806184,-1.079505,0.979557,33.925968,11.667107,-7.061237
391,219488677,170.291977,10.974138,141.074585,1.903074,-0.105431,0.772528,15.619890,7.852817,-6.867797
392,219505344,170.171158,10.980627,141.208237,2.170878,0.193440,-0.596250,-7.431450,-0.159465,-7.850422
393,219522011,169.869553,11.037804,141.340118,1.457274,-0.619081,-1.037022,-18.256783,-3.136484,-8.273541
394,219538678,169.518463,11.099341,141.456573,0.657580,-0.925591,-0.115541,-21.052614,-3.503760,-7.433677
395,219555345,169.401810,11.154630,141.599060,0.920400,-0.311414,0.747094,-7.297857,-2.820369,-8.879428
396,219572012,169.378906,11.278557,141.738617,1.205249,0.197421,-0.073019,-1.649343,-6.885555,-9.467662
397,219588679,169.481903,11.378361,141.894531,1.030024,0.149506,-1.204713,5.699283,-5.290421,-10.139292
398,219605346,169.801193,11.293235,142.082092,0.361539,-0.420330,-0.954096,18.307085,5.924925,-9.960244
399,219622013,170.368118,10.999462,142.327942,0.713140,-0.181356,0.216608,32.523438,18.773943,-11.247136
400,219638680,171.040222,10.581963,142.676987,1.290498,0.079338,0.612427,37.767471,26.965542,-16.278252
401,219655347,171.720963,10.115647,143.162064,1.539326,-0.111654,0.426695,36.981003,30.879131,-24.140385
402,219672014,172.402908,9.617356,143.803177,1.671877,-0.454081,0.530419,35.694717,33.774471,-33.428535
403,219688681,173.027771,9.108949,144.545624,2.193432,-0.158721,-0.258618,31.615480,34.767742,-39.753727
404,219705348,173.461472,8.516603,145.392792,2.070457,-0.098071,-0.862639,19.612177,40.145901,-45.720657
405,219722015,173.418152,7.939625,146.320526,2.310433,0.676159,-0.680802,-9.181228,39.636211,-50.796864
406,219738682,173.059067,7.403857,147.327560,2.229382,0.610507,-0.019817,-28.217756,37.929550,-55.702221
407,219755349,172.454803,6.918361,148.435150,2.174524,-0.352859,0.806864,-43.139549,36.174004,-61.759487
408,219772016,171.657745,6.478547,149.703140,2.410198,-1.083115,0.512462,-55.291779,35.549671,-71.207436
409,219788683,170.621902,6.096738,151.130692,1.907601,-1.882330,0.127777,-70.124527,34.730621,-80.610558
410,219805350,169.438126,5.767483,152.595383,1.961106,-2.676142,0.103626,-78.705353,33.583298,-82.686401
411,219822017,168.282394,5.403945,154.080734,1.203673,-3.503135,0.336815,-76.623192,37.541142,-82.822662
412,219838684,167.432068,4.861959,155.558319,1.322938,-3.404803,0.891918,-57.571571,49.376949,-79.492615
413,219855351,166.819107,4.084134,157.070465,1.702015,-3.114993,0.995507,-42.487732,64.669647,-77.785233
414,219872018,166.315948,3.096877,158.713287,1.608634,-3.981765,0.938157,-35.008274,79.494225,-81.929115
415,219888685,165.964386,1.926279,160.553864,1.999480,-5.004778,0.730131,-24.597647,93.653610,-90.296738
416,219905352,165.620804,0.494297,162.432739,2.159088,-4.001474,0.808163,-21.681961,109.996445,-88.180466
417,219922019,165.188202,-1.009790,164.237534,2.742386,-2.574929,-0.622126,-24.170097,113.673447,-82.059433
418,219938686,164.677734,-2.583838,166.052780,2.787297,-2.437011,-1.721688,-25.925264,118.557045,-80.577011
419,219955353,164.154221,-4.291720,167.998703,2.155555,-3.400489,-1.925524,-23.131727,129.086197,-84.743271
420,219972020,164.042755,-6.199811,170.023590,0.946281,-3.710427,-1.558059,5.678239,142.327408,-85.005516
421,219988687,164.253952,-8.245598,171.997421,0.764605,-1.296210,-1.188034,28.796444,149.248627,-79.521355
422,220005354,164.353226,-10.216810,173.917709,0.360196,-0.732628,-0.891501,25.667992,143.706573,-77.522415
423,220022021,164.279678,-12.235293,175.859909,-0.219891,-2.302444,-0.336220,19.500113,146.572250,-77.352837
424,220038688,163.936386,-14.316239,177.754898,-0.464972,-2.703966,-0.064323,6.732127,149.454834,-72.300491
425,220055355,163.207901,-16.361176,179.575027,-0.175664,-1.238348,0.089655,-13.608727,146.535873,-66.389015
426,220072022,162.375824,-18.350052,-178.713028,-0.296849,0.207966,0.023490,-18.077164,142.056534,-58.427700
427,220088689,161.780716,-20.365599,-177.098663,-0.505318,0.807655,-0.511056,-2.392264,142.242538,-49.826836
428,220105356,161.535767,-22.424700,-175.670288,-0.608654,1.476426,-1.275054,17.773973,141.432861,-36.959003
429,220122023,161.479477,-24.483690,-174.459351,-0.764451,1.630605,-1.734728,26.754772,137.350281,-24.125357
430,220138690,161.572311,-26.502033,-173.425537,-0.501416,1.442613,-1.164209,33.490948,131.647263,-14.835402
431,220155357,161.692001,-28.508171,-172.508682,-0.510130,1.740985,-0.726336,33.817654,128.653290,-8.483028
432,220172024,161.754929,-30.370621,-171.705627,-0.898840,2.198777,-0.535257,28.700821,118.307800,-4.909507
433,220188691,161.790024,-32.085983,-170.977676,-1.361764,1.555636,-0.654423,26.003084,108.474419,-3.391001
434,220205358,161.907242,-33.740108,-170.359970,-1.560169,1.209963,-0.630091,28.434366,103.029617,1.241766
435,220222025,162.121384,-35.343243,-169.879028,-1.437353,0.935656,-0.291329,30.480553,97.848801,6.978927
436,220238692,162.629440,-36.984825,-169.547897,-1.249354,0.838635,0.001556,43.484268,97.745041,14.418248
437,220255359,163.421997,-38.673203,-169.358536,-0.861574,0.675087,0.237327,55.802952,98.518974,20.872847
438,220272026,164.343307,-40.388374,-169.306137,-0.961851,1.281494,0.097214,58.566921,98.544044,26.118195
439,220288693,165.358719,-42.093121,-169.355240,-0.830718,1.078250,0.294135,60.276569,97.152130,28.747515
440,220305360,166.487366,-43.944012,-169.425201,-1.111725,0.332259,1.159013,66.156387,105.968269,29.867584
441,220322027,167.546036,-46.000950,-169.498383,-0.813035,-0.309579,2.236532,61.721783,118.554733,30.630083
442,220338694,168.505753,-48.267139,-169.481903,-0.653247,0.301966,2.883157,59.620354,132.138016,27.419292
443,220355361,169.266983,-50.608040,-169.309586,-1.055058,1.160067,2.119987,54.844177,138.096664,20.343695
444,220372028,169.640213,-52.897938,-169.054596,-1.922910,2.144600,0.822245,35.740124,135.779678,15.702657
445,220388695,169.732803,-55.086235,-168.672195,-1.904873,1.754985,0.457739,25.459097,130.557190,10.108152
446,220405362,169.941177,-57.290054,-168.206177,-1.046518,1.351952,0.856254,37.085892,131.856461,7.893256
447,220422029,170.338638,-59.521614,-167.601944,-0.800284,0.691607,0.873504,56.086124,134.124878,4.095065
448,220438696,171.057007,-61.741982,-167.063950,0.011021,0.921749,0.775654,72.593292,132.977478,5.792800
449,220455363,171.689850,-63.808079,-166.636627,0.054117,1.365471,0.449656,62.136143,123.269684,6.881383
450,220472030,172.051163,-65.636780,-166.315063,-0.871355,1.387257,-0.197607,40.500069,108.731606,7.249181
451,220488697,172.339554,-67.322441,-166.158524,-1.619381,1.419250,-0.467921,27.293268,99.659164,9.916889
452,220505364,172.812286,-68.918327,-166.213791,-1.704358,1.084324,-0.181056,26.670420,93.728897,13.499768
453,220522031,173.500183,-70.323929,-166.514893,-1.407448,1.403865,-0.066959,25.724901,81.915092,16.202652
454,220538698,174.448807,-71.518829,-166.902527,-0.906189,1.386385,0.141548,36.327377,69.421761,14.999435
455,220555365,175.578110,-72.536766,-167.328323,-0.962852,1.929082,-0.004561,44.849556,59.086990,13.082824
456,220572032,176.679092,-73.346870,-167.806335,-1.604554,1.939456,0.180557,40.036263,46.847107,11.605057
457,220588699,177.069153,-73.876389,-167.915833,-2.359059,1.565231,0.438280,18.502628,30.538668,3.522768
458,220605366,177.799026,-74.339355,-168.581314,-2.329558,1.147927,0.607573,6.791310,26.163055,12.113708
459,220622033,178.667038,-74.636467,-169.424545,-2.120735,1.617808,0.108917,4.738287,16.302109,14.027683
460,220638700,179.581299,-74.958611,-170.606918,-1.462224,1.230249,0.579147,-12.194113,17.936495,18.858068
461,220655367,-179.943695,-75.323006,-171.235474,-1.086071,1.428258,0.207454,-6.538936,20.716059,9.708251
462,220672034,-179.938980,-75.432785,-171.417633,-1.034381,1.724125,0.481424,-8.880297,5.472622,2.727388
463,220688701,-179.434479,-75.509705,-171.948196,-1.318384,0.993653,0.568190,0.868213,3.538632,7.943647
464,220705368,-178.942871,-75.510002,-172.418594,-1.743299,1.212543,0.464477,3.585503,-1.006336,7.049276
465,220722035,-178.773804,-75.434769,-172.650269,-1.677292,1.093553,0.746200,-1.892856,-5.570558,3.569892
466,220738702,-178.647064,-75.356575,-172.830048,-1.239089,0.809816,0.854808,-1.414308,-5.760552,2.823974
467,220755369,-178.682968,-75.215492,-172.936661,-0.584476,1.016765,0.989522,-6.920170,-9.567424,1.825046
468,220772036,-178.807571,-75.016640,-172.939789,-0.442771,0.823190,0.990772,-6.237695,-13.069940,0.317777
469,220788703,-178.892044,-74.790802,-172.932693,-0.673398,0.818941,0.816908,-3.233439,-14.690238,0.172073
470,220805370,-178.920502,-74.542389,-172.899323,-1.156827,1.129214,0.472893,1.647282,-16.055311,-0.230386
471,220822037,-178.993195,-74.215912,-172.802917,-1.221229,0.999604,0.402678,2.633988,-20.759163,-1.180773
472,220838704,-179.023834,-73.834236,-172.682419,-0.961208,1.060258,0.578845,6.538533,-24.084700,-1.568295
473,220855371,-179.013626,-73.407082,-172.549332,-0.597590,1.085480,0.809424,9.702137,-26.815277,-1.783238
474,220872038,-179.078384,-72.914818,-172.443939,-0.595257,1.363908,0.967906,3.599301,-30.717785,-1.305573
475,220888705,-179.684021,-72.275139,-172.336029,-0.839187,1.785016,0.972085,-28.728073,-39.554420,-1.481835
476,220905372,178.816940,-71.379524,-172.102310,-0.858195,1.534351,0.909041,-75.180344,-54.860641,-4.734396
477,220922039,176.951218,-70.378204,-171.758652,-0.885130,1.451077,1.006719,-91.015480,-60.949562,-8.918925
478,220938706,175.303986,-69.458008,-171.440781,-0.790677,1.573525,0.955409,-79.473373,-55.811295,-10.210269
479,220955373,173.982330,-68.595825,-171.187332,-0.602015,1.425304,0.963956,-63.651203,-52.166309,-10.192603
480,220972040,172.876999,-67.669334,-171.065918,-1.178928,1.598666,0.635326,-58.105679,-56.083588,-8.996939
481,220988707,171.934021,-66.623535,-171.041229,-1.852220,1.577943,0.140075,-53.756092,-63.298164,-8.800189
482,221005374,171.132065,-65.555260,-170.986237,-1.766965,1.636031,-0.164693,-43.637691,-64.387856,-10.694035
483,221022041,170.360352,-64.453255,-170.830780,-1.421913,1.262940,0.041182,-36.380749,-65.817589,-14.452841
484,221038708,169.717941,-63.348122,-170.687561,-0.756646,1.395671,0.398811,-29.355337,-65.854256,-15.120847
485,221055375,169.311996,-62.269119,-170.611649,-0.512007,1.473287,0.779095,-18.828310,-64.483574,-13.753211
486,221072042,169.210754,-61.214008,-170.709091,-1.314218,1.984870,0.475302,-9.741474,-63.915737,-8.998067
487,221088709,169.288925,-60.023186,-171.034073,-1.866975,2.710441,-0.303596,-10.813988,-73.186508,-3.843536
488,221105376,169.556061,-58.694500,-171.456192,-1.933015,2.528257,-0.708835,-4.267203,-81.950096,-1.853763
489,221122043,170.047897,-57.315479,-171.948013,-1.448158,2.027331,-0.331484,5.986810,-85.423111,0.836961
490,221138710,170.723923,-55.843662,-172.573517,-1.181702,2.242869,0.270443,10.747304,-91.746513,5.734158
491,221155377,171.482513,-54.226742,-173.336456,-1.215020,2.152803,0.222128,9.518510,-101.132996,11.022568
492,221172044,172.255569,-52.440300,-174.214066,-1.512142,1.863329,-0.462855,5.670645,-111.787560,16.080881
493,221188711,173.070633,-50.474022,-175.221100,-1.609565,2.002656,-1.221476,3.177872,-123.054947,22.388340
494,221205378,173.979156,-48.386684,-176.223907,-1.434952,1.039591,-1.343767,10.347233,-130.097260,24.873634
495,221222045,174.900452,-46.236004,-177.291306,-1.059217,1.262911,-1.500697,9.746469,-133.887909,30.829296
496,221238712,175.345291,-43.827518,-178.434540,-0.677001,1.279504,-1.833717,-20.285158,-149.359665,36.126266
497,221255379,175.341873,-41.164185,-179.540024,0.149084,-0.089160,-1.138077,-43.445511,-164.499954,35.878246
498,221272046,175.305359,-38.584606,179.549698,0.682424,-2.719290,0.428709,-35.635818,-158.937286,29.251972
499,221288713,175.623260,-36.307194,178.818954,0.504287,-3.896109,0.968856,-6.022155,-140.229370,23.969032
500,221305380,176.339859,-34.350143,178.144714,0.478516,-2.667012,0.724632,21.149847,-120.705711,24.752022
501,221322047,177.037888,-32.431980,177.505722,-0.212908,0.048199,-0.086633,22.319357,-118.003281,25.357210
502,221338714,177.309357,-30.329388,176.965378,-0.544358,1.866024,-0.277148,0.948207,-128.623703,21.464182
503,221355381,177.235748,-28.096434,176.631058,-0.592607,0.247516,0.856120,-12.653957,-135.918549,11.152794
504,221372048,177.253143,-25.928841,176.392563,-1.370795,-2.408542,2.210526,-3.902731,-131.780182,6.515726
505,221388715,177.464401,-23.923649,176.032104,-1.464251,-2.241696,2.165949,5.105205,-122.355453,14.067606
506,221405382,177.584656,-21.995632,175.409103,-0.476722,0.745830,1.858359,-5.831690,-118.333221,29.399446
507,221422049,177.183273,-19.862091,174.682312,-0.087706,2.038336,1.088029,-38.120388,-131.014389,34.849430
508,221438716,176.166199,-17.443747,173.955811,0.063858,1.673393,0.183028,-73.412567,-148.530762,32.815865
509,221455383,174.826050,-14.943785,173.270798,-0.220197,-0.244541,0.480142,-90.307434,-153.915604,27.561825
510,221472050,173.549820,-12.548020,172.437378,0.051635,-1.062628,0.670770,-86.897560,-149.207138,33.746498
511,221488717,172.553146,-10.285432,171.407669,-0.139458,-1.441412,0.275481,-70.482208,-143.363876,43.661018
512,221505384,171.800323,-8.057321,170.099030,0.616037,-0.034804,-0.725585,-56.150940,-144.270081,58.555019
513,221522051,171.053864,-5.843998,168.672104,1.269608,0.480606,-1.142777,-53.619110,-145.257812,64.192596
514,221538718,170.136108,-3.693981,167.137756,1.796482,-0.119061,-0.495054,-61.190887,-143.526993,69.373543
515,221555385,169.007111,-1.599411,165.477570,2.086949,-1.599151,0.429910,-70.814049,-142.869629,75.050491
516,221572052,167.958374,0.361281,163.625717,1.491637,-2.182159,0.210279,-62.611164,-138.704987,85.311531
517,221588719,167.079178,2.109519,161.556015,1.401720,-1.842475,0.008655,-48.579227,-130.486771,98.478569
518,221605386,166.305771,3.706799,159.314255,2.170103,-1.237289,0.296722,-38.098953,-125.413910,108.590691
519,221622053,165.520050,5.204049,156.917786,2.744356,-1.408692,-0.040328,-34.503174,-123.244850,117.102448
520,221638720,164.780167,6.589447,154.366028,2.695365,-2.864411,-0.259652,-27.200842,-120.584877,125.831268
521,221655387,164.219788,7.865848,151.684357,2.354519,-3.710300,0.112117,-11.936099,-117.646172,133.277191
522,221672054,164.146820,9.089449,149.133469,2.575950,-4.680313,1.355321,19.605106,-113.072777,125.568642
523,221688721,164.230453,10.166029,146.557907,1.099226,-5.147879,0.433282,32.260929,-104.822838,128.932510
524,221705388,164.664932,10.895482,144.308456,-0.512765,-4.245400,-0.689713,52.109272,-78.892296,116.048737
525,221722055,165.236679,11.273074,142.805038,-1.163965,-1.742340,-1.675297,52.998581,-46.008209,79.554573
526,221738722,165.628372,11.489092,142.326370,0.208847,0.380375,-1.768605,30.513062,-20.771694,23.944433
527,221755389,165.887360,11.693164,142.747192,2.654498,0.915357,-2.057692,11.812866,-6.928540,-27.032810
528,221772056,165.834808,11.986732,143.608795,2.019891,-0.926834,-0.927842,-12.400520,-5.860043,-53.408447
529,221788723,165.650665,12.364636,144.329651,0.181489,-3.163992,0.108687,-18.808325,-12.692454,-46.601772
530,221805390,165.546082,12.594710,144.726212,-0.698835,-3.381651,-0.502118,-10.065053,-8.714632,-25.971956
531,221822057,165.656189,12.632624,144.773682,0.505766,-1.620720,-0.892741,7.320847,-2.630015,-3.292372
532,221838724,165.931641,12.573932,144.655304,1.495289,0.234596,-0.890882,19.409660,0.600817,7.553203
533,221855391,166.357452,12.488420,144.696457,1.900039,1.176113,-0.771755,26.350260,4.451581,-1.139524
534,221872058,166.774551,12.476224,145.014542,1.764323,0.893393,-0.791302,22.248711,3.937907,-17.981937
535,221888725,166.944885,12.585978,145.471054,1.478620,0.468949,0.278952,5.633728,-1.432855,-27.563684
536,221905392,166.801300,12.805768,145.909576,1.311501,-0.011916,0.169180,-13.034349,-8.107243,-28.019600
537,221922059,166.574020,12.957764,146.350037,1.447548,0.245484,0.270127,-18.161343,-4.031915,-27.196693
538,221938726,166.435867,13.052087,146.845825,1.573361,0.386093,-0.251685,-13.610242,0.176056,-29.531553
539,221955393,166.562881,13.063128,147.423981,1.321808,-0.114582,-0.225140,1.161752,6.165097,-33.037102
540,221972060,166.889297,12.944191,148.018982,0.771950,-0.734543,-0.255479,12.933138,13.857606,-32.242294
541,221988727,167.508728,12.574538,148.610794,0.420630,-0.830495,0.122802,30.703791,28.229721,-28.877111
542,222005394,168.428513,11.948949,149.223846,0.658454,-0.454791,0.377474,48.750706,43.134880,-27.353714
543,222022061,169.625687,11.148897,149.938644,0.913165,0.060140,0.902681,64.619637,54.058514,-32.135418
544,222038728,170.927200,10.234463,150.797485,1.161123,0.001057,1.576404,69.908020,61.567928,-40.664570
545,222055395,172.095825,9.281422,151.786346,1.540938,-0.418495,1.487391,61.440327,64.128746,-49.413342
546,222072062,173.093750,8.306285,152.832886,2.070031,-0.566105,0.859262,51.657368,64.965889,-54.016369
547,222088729,173.826477,7.292165,153.893448,1.996431,-0.877603,0.950236,36.712288,66.588127,-55.723953
548,222105396,174.321091,6.229330,155.036346,1.766234,-1.420337,0.630268,22.990086,69.425018,-61.166183
549,222122063,174.829285,5.105032,156.311020,1.502071,-1.355840,0.683465,24.320814,73.324066,-69.404396
550,222138730,175.250900,3.961384,157.680252,2.044681,-1.643767,1.090740,20.181772,74.423195,-75.673164
551,222155397,175.551392,2.844762,159.063110,2.647560,-1.514129,0.322515,14.478806,72.413437,-77.202385
552,222172064,175.538864,1.654988,160.385315,2.202062,-1.872805,-1.868563,-2.493136,76.331093,-73.500175
553,222188731,175.227081,0.301030,161.589722,1.515416,-2.569988,-2.074793,-18.572800,85.803825,-65.491989
554,222205398,175.048767,-1.391036,162.786789,1.190565,-3.426725,0.419553,-8.660122,106.266998,-62.970383
555,222222065,175.262863,-3.332479,164.004791,1.615933,-3.401307,1.309965,17.195229,121.264343,-62.936958
556,222238732,175.916107,-5.379952,165.295181,2.269031,-2.819851,-0.052071,46.392433,127.457489,-67.544258
557,222255399,176.757858,-7.497933,166.632660,2.491795,-1.295470,-1.451174,60.807884,130.960587,-71.485947
558,222272066,177.368652,-9.625380,168.001205,2.464179,-1.066325,-1.809544,50.172356,130.694275,-74.581322
559,222288733,177.634628,-11.699698,169.415909,1.718124,-2.190472,-0.961293,32.963963,127.040604,-77.947479
560,222305400,177.737534,-13.767873,170.804886,1.742038,-2.837231,-0.594701,25.834736,126.340698,-76.250481
561,222322067,177.551910,-15.710361,172.162994,1.687241,-1.595436,-0.724371,10.873327,118.764740,-73.994514
562,222338734,176.999374,-17.421612,173.525681,1.754701,-0.050232,-0.889228,-8.566513,105.364998,-73.447365
563,222355401,176.134445,-18.872885,174.911636,1.698773,-0.725587,-0.981611,-24.720150,90.738792,-73.714767
564,222372068,175.021027,-20.034264,176.258667,0.800485,-1.092705,-1.494197,-38.618450,74.444023,-70.658516
565,222388735,173.845947,-21.071150,177.552048,0.182720,-1.958524,-1.705669,-41.997795,68.062157,-66.338509
566,222405402,172.858536,-22.166180,178.777725,-0.022686,-2.237132,-1.250256,-30.899431,72.266251,-60.358383
567,222422069,172.195328,-23.413151,179.927490,0.290169,-1.234467,-0.938529,-11.831024,81.543205,-53.394051
568,222438736,171.745682,-24.741110,-179.023926,0.437694,-0.056797,-0.848707,-0.078224,86.006149,-45.818943
569,222455403,171.375916,-26.106285,-178.086441,-0.554108,-0.305319,-0.803600,3.194845,87.564636,-38.304348
570,222472070,171.299316,-27.464907,-177.159500,-2.287467,-1.835720,-1.018001,21.699087,87.145805,-36.885700
571,222488737,171.830048,-28.883976,-176.194626,-2.397749,-1.602744,-1.087022,60.400375,90.776764,-38.084835
572,222505404,173.094437,-30.428104,-175.069672,-1.412625,-1.253702,-0.443515,110.473587,98.593979,-46.104889
573,222522071,175.038589,-32.245880,-173.775070,-0.551107,-1.301023,1.935029,158.249741,114.382919,-54.841999
574,222538738,177.128616,-34.143517,-172.422043,-0.480747,-1.641762,3.040789,171.046692,117.264267,-60.140923
575,222555405,178.437820,-35.886868,-171.200256,-0.408746,-0.323492,3.321029,121.821236,105.858925,-56.100441
576,222572072,178.716553,-37.418545,-170.202515,-0.041232,1.744706,3.792637,53.676617,92.069092,-45.888222
577,222588739,178.303284,-38.782677,-169.365540,-0.005893,2.831695,3.163549,7.419963,81.849434,-37.531357
578,222605406,177.401489,-39.971256,-168.607361,-0.415905,2.475600,1.959601,-24.004551,71.586945,-32.615761
579,222622073,176.418655,-41.107204,-167.903534,-0.564720,1.665842,1.491355,-30.267546,68.792831,-28.515266
580,222638740,175.778275,-42.320728,-167.312943,-0.387196,0.798893,1.502307,-13.580976,73.445763,-21.576548
581,222655407,175.641449,-43.586979,-166.940308,-0.632669,1.431006,0.728747,8.291754,75.987900,-10.775578
582,222672074,175.884689,-44.751518,-166.801575,-1.247190,2.255431,0.307593,21.668587,69.122612,-0.930040
583,222688741,176.385834,-45.810780,-166.772110,-2.837384,2.635700,-1.468578,32.609009,62.491299,2.909923
584,222705408,177.115509,-46.789417,-166.876114,-3.546889,2.173330,-1.341848,40.566082,57.364246,7.505723
585,222722075,178.273331,-47.885563,-167.099106,-3.158625,1.838652,-0.386748,60.937595,64.321877,11.586185
586,222738742,-179.963013,-49.151634,-167.479919,-2.648266,1.520896,0.489017,90.021645,74.690193,16.137379
587,222755409,-177.577103,-50.619610,-168.025040,-3.108809,1.795321,0.077799,119.461761,87.457909,19.069891
588,222772076,-174.882248,-52.136681,-168.762924,-3.137847,3.010769,-0.502257,128.430847,91.576729,21.487652
589,222788743,-171.985947,-53.612091,-169.586456,-2.550664,3.801601,-0.112245,135.723938,90.275063,19.417315
590,222805410,-169.144638,-55.044319,-170.448639,-2.145798,3.399585,0.197961,129.809631,88.629578,15.599668
591,222822077,-166.523849,-56.382038,-171.411926,-1.749732,3.262505,0.367041,110.863312,84.228012,14.855823
592,222838744,-164.255020,-57.615448,-172.401642,-1.420492,3.741540,0.362582,87.708038,78.671906,12.588105
593,222855411,-162.599548,-58.674541,-173.256882,-1.658134,3.203177,0.432561,57.139729,67.535927,7.804681
594,222872078,-161.547791,-59.543980,-173.955215,-1.833256,2.821064,0.049444,28.557953,55.157555,4.398190
595,222888745,-160.990158,-60.230988,-174.493393,-1.835669,2.205170,0.202371,6.944444,43.142849,2.103598
596,222905412,-160.792496,-60.846912,-174.865311,-0.711402,1.323232,0.869922,-6.145363,37.410191,-1.715329
597,222922079,-160.751495,-61.461784,-175.150497,-0.399983,0.650680,0.808557,-11.099771,36.452766,-4.338776
598,222938746,-160.758224,-62.056278,-175.371460,-1.079612,0.399239,0.250360,-10.655931,34.641064,-5.813521
599,222955413,-161.004425,-62.536182,-175.494507,-1.318006,0.220016,-0.020817,-19.877712,27.225790,-6.165898
600,222972080,-161.385605,-62.910545,-175.572235,-0.464141,0.469798,0.274263,-25.584162,20.841755,-5.192867
601,222988747,-162.003357,-63.208401,-175.498154,0.033905,0.314627,0.380982,-31.669579,15.222669,-7.497472
602,223005414,-163.003876,-63.443222,-175.250122,0.227679,0.204662,0.338959,-45.296535,10.318786,-10.581470
603,223022081,-163.390732,-63.755390,-175.408829,-0.204357,-0.018284,0.372364,-30.308046,18.042580,-1.334018
604,223038748,-163.857620,-63.968670,-175.283463,-0.241154,0.338657,-0.406034,-19.827097,10.233234,-6.760894
605,223055415,-164.370422,-64.158829,-174.801224,-0.386137,-1.105674,0.233332,-3.314606,6.398705,-15.266731
606,223072082,-164.697296,-64.322113,-174.433090,-0.278176,-0.609328,0.411355,1.710564,5.767362,-11.840054
607,223088749,-164.880005,-64.507393,-174.072906,0.236702,0.241247,0.376035,9.958887,7.159519,-11.900402
608,223105416,-165.102249,-64.641029,-173.651596,0.147027,0.274878,0.292462,10.929110,3.822449,-12.538530
609,223122083,-165.377716,-64.737488,-173.291702,0.220308,0.376933,0.427570,4.422015,2.132623,-10.378206
610,223138750,-165.773346,-64.803337,-172.894608,-0.018993,0.408965,0.428301,-0.755011,0.184405,-10.795039
611,223155417,-166.215912,-64.841942,-172.486847,-0.331266,0.162835,0.413887,-2.979437,-1.381639,-10.633487
612,223172084,-166.597366,-64.866188,-172.127487,-0.371547,0.479620,0.474500,-1.936052,-1.850915,-9.220652
613,223188751,-166.933685,-64.858734,-171.764877,-0.239888,0.872668,0.567954,0.951070,-3.664115,-8.866375
614,223205418,-167.285126,-64.800247,-171.366470,0.011690,1.099624,0.718054,1.984876,-6.797370,-9.096046
615,223222085,-167.717316,-64.679283,-170.889404,-0.084069,1.065442,0.748693,1.395381,-10.837586,-10.319325
616,223238752,-168.277664,-64.503548,-170.373413,-0.695499,0.970595,0.765819,-4.214639,-14.183356,-10.761291
617,223255419,-169.104416,-64.239578,-169.816956,-1.267938,1.419022,0.702164,-18.057352,-19.468491,-11.012060
618,223272086,-170.218704,-63.834339,-169.196838,-1.155100,1.704661,0.950627,-31.955492,-27.950724,-11.611801
619,223288753,-171.490280,-63.266747,-168.502228,-1.071968,2.523132,0.581290,-37.525345,-37.686642,-12.857814
620,223305420,-172.847366,-62.533997,-167.716766,-1.873081,2.379894,0.232148,-38.009865,-47.589878,-15.212056
621,223322087,-174.113205,-61.653202,-167.042862,-2.491700,2.554836,-0.196620,-38.745560,-55.772697,-12.726665
622,223338754,-175.381638,-60.594379,-166.499817,-2.290038,2.147749,0.150153,-46.092503,-65.825157,-9.767758
623,223355421,-176.542053,-59.411846,-166.159821,-1.744256,2.619689,0.433678,-50.465183,-72.626312,-5.085299
624,223372088,-177.529327,-58.136650,-165.908386,-1.379048,2.465052,0.608684,-44.832291,-77.952019,-3.754007
625,223388755,-178.308670,-56.777760,-165.766632,-1.506991,2.189810,0.402635,-38.080063,-82.786385,-1.504303
626,223405422,-178.883926,-55.339012,-165.732376,-2.014847,1.760295,-0.005646,-31.287836,-87.472618,1.078910
627,223422089,-179.243942,-53.860577,-165.877640,-2.042279,1.490439,0.098986,-27.175447,-89.762146,6.612156
628,223438756,-179.416763,-52.321018,-166.257217,-1.883390,1.924035,0.284333,-27.041811,-93.367142,14.872348
629,223455423,-179.595856,-50.731094,-166.847672,-1.258694,2.071928,0.631740,-36.932198,-96.368950,22.982315
630,223472090,-179.919281,-49.042084,-167.644394,-0.691240,2.369148,0.687351,-54.405663,-102.381966,31.350201
631,223488757,179.567184,-47.212460,-168.523575,-0.896862,2.436255,0.124057,-68.521118,-111.059914,34.994263
632,223505424,178.840424,-45.272335,-169.432724,-1.205462,1.940299,-0.254372,-81.420609,-118.101250,36.227409
633,223522091,178.043182,-43.279797,-170.375351,-1.529557,1.541185,-0.356772,-85.722748,-121.798874,37.347286
634,223538758,177.420883,-41.344452,-171.375534,-1.122600,0.742058,0.192551,-76.133408,-118.985573,39.860355
635,223555425,177.181244,-39.535702,-172.463379,-0.383854,0.220821,1.044814,-55.111282,-111.951088,44.615891
636,223572092,177.473679,-37.946037,-173.571213,0.481652,-0.540145,2.081051,-22.445309,-98.904449,47.436871
637,223588759,178.501892,-36.656178,-174.647675,0.531667,-0.565766,1.869800,24.150215,-80.360130,48.715797
638,223605426,-179.867798,-35.365440,-175.832123,-1.722749,2.400213,-1.715029,57.628342,-79.335892,56.642403
639,223622093,-178.076141,-33.947872,-177.011978,-2.103648,2.560547,-3.892327,68.842346,-85.214943,59.835838
640,223638760,-176.774750,-32.274372,-178.014633,-1.037777,0.170292,-2.651769,46.831676,-99.273209,54.938988
641,223655427,-175.734406,-30.540676,-178.898193,-0.297767,-1.987844,0.685539,36.407124,-102.077782,52.029499
642,223672094,-174.252228,-29.016167,-179.889404,0.375301,-2.485675,2.569608,60.995720,-87.855072,59.481598
643,223688761,-172.422821,-27.633446,178.965607,-0.282193,-1.392245,1.133033,78.756638,-76.625259,69.761841
644,223705428,-170.673325,-26.201334,177.857773,-0.555951,-0.283957,-0.791124,76.457603,-77.523903,71.319923
645,223722095,-169.133224,-24.634602,176.974930,-0.286537,-0.935492,-0.164542,71.246773,-85.407440,63.646225
646,223738762,-167.707993,-23.028503,176.302887,-0.516589,-2.382117,1.675426,70.794312,-88.249985,55.537987
647,223755429,-166.473358,-21.441057,175.644638,-0.867463,-2.914867,3.348697,60.692753,-85.923866,56.968948
648,223772096,-165.531708,-19.785414,174.974274,-1.359025,-2.878322,3.103379,43.883980,-88.540596,60.606815
649,223788763,-165.215240,-17.877668,174.419510,-1.195781,-1.140923,0.876158,9.778388,-104.064636,59.430687
650,223805430,-165.255676,-15.884233,174.077881,-1.004392,-0.926026,0.257340,-6.848750,-111.929474,49.484409
651,223822097,-165.734756,-13.820824,173.854889,-0.468099,0.423193,0.081281,-30.648428,-117.898056,43.559689
652,223838764,-166.817307,-11.592256,173.687210,-0.284444,0.029057,0.859731,-65.633385,-128.851196,41.282558
653,223855431,-168.312332,-9.125961,173.429062,-0.178704,-1.277364,0.882657,-90.950333,-142.512466,46.758961
654,223872098,-169.838623,-6.508684,172.890015,-0.240908,-1.089610,-0.016129,-94.445923,-149.406967,61.228035
655,223888765,-170.975571,-3.886555,171.945084,-0.224458,1.016151,-1.624798,-71.835533,-147.004852,81.886269
656,223905432,-172.093201,-1.195895,170.661194,0.374662,0.980993,-3.144879,-68.956383,-149.636978,99.874275
657,223922099,-173.551865,1.717296,168.996475,1.477604,-0.441034,-3.033711,-85.539665,-162.224045,120.921440
658,223938766,-175.754669,4.679311,166.938416,2.625285,-2.095478,-2.561750,-123.745117,-166.733429,139.293015
659,223955433,-178.069870,7.377966,164.415039,2.993833,-0.822961,-2.558815,-121.488136,-154.828323,159.039612
660,223972100,-179.765747,9.517895,161.423950,3.423525,0.385004,-1.802061,-73.891762,-126.252922,179.862869
661,223988767,178.237808,11.312994,158.059753,3.761453,-1.378646,-0.604332,-81.796494,-111.561104,197.021011
662,224005434,175.343765,12.898541,154.535019,2.748594,-4.304333,-2.410283,-127.779877,-107.763626,201.080902
663,224022101,173.306839,13.673409,151.071182,3.318272,-4.823313,-4.734942,-72.994972,-67.460815,196.619522
664,224038768,172.248199,13.770858,148.090210,2.425220,-4.046350,-1.873131,-19.676237,-28.830397,171.579865
665,224055435,171.340408,13.849895,145.926910,2.153724,-2.382864,0.515633,-22.093067,-23.849791,124.025734
666,224072102,171.492371,13.942054,144.923630,2.272894,-1.217287,0.087586,24.953089,-15.341382,56.909706
667,224088769,172.488785,14.083147,144.972733,4.197226,-0.551489,0.667651,60.448696,-9.125054,-4.050727
668,224105436,172.878632,14.816161,145.517273,4.503317,-0.486489,0.739322,16.627581,-40.715935,-37.017082
669,224122103,172.471069,15.995481,146.353714,1.375132,-1.980121,-1.429605,-36.383778,-65.114380,-57.044724
670,224138770,172.135773,16.942623,147.141754,-0.658512,-3.548570,-0.568177,-32.122719,-51.336205,-52.575935
671,224155437,171.967270,17.522144,147.412140,0.401610,0.098545,0.755199,-13.533319,-33.383961,-20.177679
672,224172104,171.343475,18.070379,147.263809,-0.101567,-0.711540,1.623193,-33.322163,-34.863064,3.584456
673,224188771,170.631378,18.446575,146.902420,0.560448,-0.105843,0.447226,-34.550545,-26.605026,16.777416
674,224205438,170.212280,18.666174,146.671844,1.263626,1.014398,0.404147,-19.361252,-16.257906,10.716866
675,224222105,169.978760,18.925810,146.657959,1.139876,0.629378,0.302466,-12.352153,-16.562107,-1.927487
676,224238772,169.909546,19.248154,146.842209,0.899809,-0.254551,0.963356,-6.372490,-18.297197,-13.687696
677,224255439,169.994156,19.584240,147.183777,0.498819,-0.814741,1.435975,-0.339984,-17.556570,-22.573639
678,224272106,170.324570,19.702478,147.595352,0.017624,-1.204880,1.145257,12.918125,-4.085646,-24.148142
679,224288773,171.108841,19.498884,148.132523,0.285158,-1.084971,0.642332,37.633404,15.885717,-28.014210
680,224305440,172.203293,19.075155,148.771423,1.204757,-0.192357,-0.120264,54.391003,29.340256,-32.128433
681,224322107,173.307831,18.575211,149.524796,1.580191,0.588480,1.131838,53.074039,34.091976,-38.676628
682,224338774,174.248413,18.029272,150.389008,1.118008,0.167080,1.786908,41.546288,36.843300,-45.407536
683,224355441,174.940979,17.418844,151.306168,0.891557,-0.822757,1.326915,26.198505,40.348839,-48.751728
684,224372108,175.568405,16.701899,152.265045,1.181360,-0.484835,1.298407,22.162611,46.372646,-51.270393
685,224388775,176.090515,15.968480,153.292206,1.742010,0.225097,1.730460,15.389699,47.147919,-55.800037
686,224405442,176.372391,15.312028,154.340500,2.154900,0.042900,1.308084,1.357888,42.248444,-57.864941
687,224422109,176.441772,14.679667,155.438080,1.584809,-0.476118,1.204663,-11.470294,40.827652,-61.123459
688,224438776,176.346588,14.082606,156.524277,1.382671,-0.629766,1.036666,-20.489105,38.705185,-60.764423
689,224455443,176.215820,13.419813,157.623169,0.568231,-1.356514,1.470247,-22.111572,42.825821,-61.340469
690,224472110,176.320740,12.532950,158.740463,0.641682,-1.312734,1.923599,-7.358160,56.342232,-61.733265
691,224488777,176.689224,11.451309,159.918488,0.870927,-1.470088,1.720473,8.817148,67.987671,-65.060982
692,224505444,177.262802,10.115526,161.188919,1.079050,-1.893503,1.563768,21.537397,82.984352,-70.555107
693,224522111,177.961472,8.539859,162.527527,1.636349,-2.023280,1.283555,30.277607,96.764374,-75.251579
694,224538778,178.658401,6.741251,163.893890,2.071846,-1.817402,0.636776,32.281170,109.277962,-78.041946
695,224555445,179.289963,4.768748,165.241837,2.328405,-1.480797,0.131990,31.140673,118.793495,-78.344711
696,224572112,179.888382,2.618265,166.595245,2.100382,-2.137117,0.235453,32.023170,128.638306,-80.115685
697,224588779,-179.409927,0.274227,167.976273,2.148336,-3.064052,0.095658,41.348434,139.335892,-83.432472
698,224605446,-178.698883,-2.140321,169.365326,2.428776,-2.843024,-1.112435,45.342220,142.528503,-85.722672
699,224622113,-177.983719,-4.527493,170.709641,2.741093,-2.037472,-1.769783,48.908234,139.901276,-84.650536
700,224638780,-177.295929,-6.870236,172.014618,2.612968,-2.022174,-2.122958,50.340580,136.310410,-83.654984
701,224655447,-176.578430,-9.206418,173.297318,1.958356,-2.312226,-2.776983,55.097424,134.982758,-83.611351
702,224672114,-175.983841,-11.554316,174.561340,1.492242,-2.375057,-2.852028,50.615227,134.828094,-83.613609
703,224688781,-175.277054,-13.986053,175.765991,1.060087,-1.918145,-1.685845,59.644238,139.203323,-81.445091
704,224705448,-174.572968,-16.471781,176.864868,0.939508,-0.912322,-1.110957,60.813374,142.026779,-76.612717
705,224722115,-173.984451,-18.923979,177.862015,0.828556,-0.367166,-1.320333,54.743462,139.812546,-71.440704
706,224738782,-173.559158,-21.258209,178.798187,0.437681,-0.731988,-2.408499,46.059040,132.598938,-67.704590
707,224755449,-173.323608,-23.586525,179.690521,0.266676,-1.143761,-2.159323,35.798000,132.223740,-65.201775
708,224772116,-173.218628,-25.962484,-179.463257,-0.076389,-0.888772,-1.162061,28.815161,135.262787,-62.574177
709,224788783,-173.223267,-28.301094,-178.715302,-0.316361,-0.322780,-0.318149,21.424206,133.705215,-56.317471
710,224805450,-173.490372,-30.502047,-178.083267,-0.218728,-0.359378,-0.299226,3.831183,126.427681,-48.194271
711,224822117,-173.584091,-32.748379,-177.609024,-0.123466,-0.879557,0.138246,10.535111,130.272766,-39.353230
712,224838784,-173.324326,-35.266003,-177.249481,0.130024,-1.029509,-0.161836,28.887260,147.106445,-35.104740
713,224855451,-172.812469,-37.983387,-177.042374,0.008786,0.505083,0.283372,39.356655,159.716614,-29.705482
714,224872118,-172.004410,-40.768219,-176.812225,-0.009195,-0.461903,1.277409,58.477798,163.281952,-32.791706
715,224888785,-170.819504,-43.708748,-176.601471,0.024453,0.156203,1.137425,80.823463,172.118973,-35.750011
716,224905452,-169.599594,-46.634335,-176.301117,-0.189715,0.169305,0.762646,87.211929,169.876434,-42.525425
717,224922119,-168.256149,-49.687984,-176.028320,-0.322648,0.339524,1.086207,94.040977,176.765137,-46.067257
718,224938786,-166.894165,-52.874496,-175.846466,-0.157405,0.976325,1.330024,91.479546,184.290848,-47.976841
719,224955453,-165.329132,-56.087692,-175.685959,-0.175844,1.399379,1.247419,102.993324,184.852615,-51.887295
720,224972120,-163.414368,-59.481968,-175.497772,-1.030417,0.792389,0.724163,125.693352,193.543747,-60.846207
721,224988787,-161.050705,-62.943310,-175.572479,-1.828144,1.435703,0.463731,139.147781,197.463348,-61.509926
722,225005454,-158.732574,-66.306480,-175.785126,-2.266598,1.733404,0.306639,128.828888,190.382065,-64.427391
723,225022121,-157.054932,-69.447220,-175.943954,-2.072253,1.979167,0.697691,93.130775,174.936630,-67.773926
724,225038788,-156.306961,-72.328682,-175.863068,-1.563986,1.857178,1.199979,50.792881,157.115463,-70.069084
725,225055455,-156.399216,-74.976234,-175.488434,-1.369609,2.157908,0.922859,17.386698,141.951431,-69.675537
726,225072122,-157.849792,-77.368248,-174.240555,-1.434348,2.452338,0.690959,-12.954434,124.237343,-72.429153
727,225088789,-160.808289,-79.499794,-171.754623,-1.607330,2.389525,0.320138,-29.987207,108.044533,-73.256866
728,225105456,-165.456711,-81.339478,-167.667206,-1.974969,2.141175,-0.076338,-35.671494,92.696236,-71.193054
729,225122123,-171.579880,-82.867302,-162.025360,-1.968792,1.959335,-0.069546,-30.671679,79.440186,-63.904037
730,225138790,-179.212082,-84.093658,-154.675339,-2.186021,1.572119,-0.385800,-18.369659,68.135384,-55.879990
731,225155457,169.623413,-85.127815,-143.687363,-2.305283,1.470781,-0.525278,-12.072615,65.676964,-56.550602
732,225172124,158.227188,-85.759796,-132.451630,-1.650561,1.010528,-0.452751,-10.346214,50.013233,-41.021370
733,225188791,145.816360,-86.127380,-120.149857,-1.704965,1.372564,-0.537038,-6.978104,42.763096,-35.823921
734,225205458,134.636536,-86.267288,-109.151260,-1.670656,1.308968,-0.267694,-10.920609,33.319965,-28.326445
735,225222125,124.745773,-86.601776,-99.188545,-1.728753,0.888532,-0.021226,4.574091,40.292587,-8.390515
736,225238792,116.108528,-86.805428,-90.406815,-2.362871,1.449212,-0.316641,9.206891,31.208858,-4.892703
737,225255459,110.108055,-86.919426,-84.463684,-2.092366,0.852035,-0.110759,-2.567433,19.564714,-1.412760
738,225272126,105.897598,-87.081009,-80.406441,-1.504992,1.126085,-0.060641,-8.112459,14.033511,5.233467
739,225288793,103.081238,-87.246300,-77.906502,-1.027682,1.674300,0.046718,-17.755518,8.590737,7.717688
740,225305460,100.080704,-87.420937,-75.277199,-0.825018,1.657440,0.222903,-21.030987,8.215848,8.776050
741,225322127,96.185722,-87.642082,-71.686813,-1.116484,1.729523,0.271097,-17.058992,9.981390,11.789842
742,225338794,92.620262,-87.821571,-68.414505,-1.403639,1.490907,0.274340,-16.335426,7.495567,10.120733
743,225355461,89.979332,-87.975708,-66.095085,-1.231618,1.351348,0.370831,-17.956411,4.231819,9.143241
744,225372128,87.245461,-88.124771,-63.615685,-0.984576,1.524372,0.445103,-13.941147,3.761875,9.085493
745,225388795,84.383980,-88.256287,-60.929680,-0.718414,1.591054,0.422237,-9.196399,3.417921,8.243010
746,225405462,80.942917,-88.388206,-57.445431,-0.451957,1.753008,0.626664,3.932249,3.980209,8.662968
747,225422129,76.798920,-88.510757,-53.071117,-0.502526,1.550756,0.757824,15.150608,4.478104,8.598563
748,225438796,74.678093,-88.645493,-50.710411,-0.804230,1.563345,0.761325,15.768283,0.343147,8.730008
749,225455463,75.837120,-88.784210,-51.725632,-0.922493,1.201220,0.965848,10.069948,-4.523911,7.757363
750,225472130,80.152107,-88.951157,-55.984722,-0.916166,1.140214,0.979724,4.808294,-8.111278,8.765279
751,225488797,93.123322,-89.099953,-69.093750,-0.819555,1.171813,0.863010,-6.744050,-14.983857,8.071910
752,225505464,115.602455,-89.151657,-91.788773,-0.522682,1.282758,0.956332,-11.425350,-20.429014,8.183032
753,225522131,140.919724,-89.052086,-117.204872,-0.658232,1.687114,0.816675,-4.359970,-23.414776,10.253192
754,225538798,161.554947,-88.773949,-137.735428,-1.192575,1.849932,0.799968,7.929097,-26.615101,12.684468
755,225555465,176.545624,-88.336815,-152.386993,-1.845204,1.821312,0.566456,22.063263,-30.763702,16.907370
756,225572132,-173.487671,-87.737305,-161.796951,-2.304137,1.617619,0.465020,35.166878,-36.381001,20.392511
757,225588799,-166.645660,-87.005981,-167.816742,-1.996759,1.602722,0.411409,51.143002,-41.394814,23.994797
758,225605466,-161.885956,-86.160187,-171.529709,-1.622815,1.887472,0.695937,64.640640,-46.297314,26.662590
759,225622133,-158.631454,-85.215744,-173.548889,-1.400981,1.940808,0.904791,75.902611,-51.335247,27.850555
760,225638800,-156.185165,-84.145294,-174.675491,-1.901451,1.888243,0.809832,80.919182,-57.973949,30.608227
761,225655467,-154.534836,-82.893776,-175.094849,-2.506770,1.466418,0.593815,75.467812,-68.157974,34.049854
762,225672134,-153.491791,-81.465103,-175.044128,-2.406039,0.810997,0.618466,67.052834,-78.333809,37.362579
763,225688801,-152.854935,-79.860054,-174.832138,-2.082975,0.875835,0.584535,52.230728,-87.966209,41.797661
764,225705468,-152.776352,-78.127388,-174.419205,-1.436066,1.020045,0.789049,30.513391,-95.738380,43.471508
765,225722135,-153.084824,-76.327118,-173.991791,-0.816622,1.204028,0.756955,7.987101,-99.870079,44.297363
766,225738802,-153.747543,-74.446251,-173.551392,-1.105551,1.256692,0.536682,-12.696574,-105.010239,44.732735
767,225755469,-154.789383,-72.436478,-173.127243,-1.756762,1.373511,0.105700,-36.607910,-112.889671,46.016602
768,225772136,-156.250488,-70.232941,-172.717834,-2.064823,1.233284,-0.146788,-62.868526,-124.706291,47.832680
769,225788803,-158.272537,-67.816925,-172.291916,-1.458607,0.974273,-0.272117,-95.916954,-138.367569,47.799023
770,225805470,-160.574341,-65.263802,-172.006836,-0.602388,1.277688,-0.102777,-120.857368,-146.958496,47.666641
771,225822137,-162.565964,-62.693836,-171.966141,0.205776,1.303083,-0.037781,-115.736549,-147.788666,47.932823
772,225838804,-163.800095,-60.179779,-172.261322,0.801594,1.605355,-0.504539,-88.034721,-143.104401,51.941109
773,225855471,-164.503738,-57.668545,-172.700928,1.142864,2.036681,-1.158099,-63.237785,-142.387238,54.432636
774,225872138,-164.624710,-55.177528,-173.297440,1.793929,1.875428,-0.882347,-35.501682,-139.955017,59.045864
775,225888805,-163.993958,-52.964474,-173.972061,2.107411,-0.109960,0.139264,6.645085,-122.555862,58.956978
776,225905472,-162.613541,-51.177696,-174.911057,1.323206,-0.656470,0.626764,39.962063,-93.873863,64.141663
777,225922139,-160.877930,-49.587040,-176.024078,0.432005,-0.524391,0.612419,54.268711,-78.429710,70.497581
778,225938806,-159.319092,-47.942600,-177.020676,-0.238032,-0.389264,0.671028,50.136826,-80.488991,70.804703
779,225955473,-158.333954,-46.189072,-177.771118,-1.181967,0.657597,0.504767,27.721403,-88.165764,66.752113
780,225972140,-157.873642,-44.382519,-178.241119,-1.740412,-0.025220,0.983403,9.166759,-94.317238,58.982155
781,225988807,-157.659058,-42.577068,-178.648743,-1.883532,-0.944175,1.189506,-2.361644,-94.712410,57.563332
782,226005474,-157.664154,-40.751209,-179.084167,-1.687609,-0.605375,1.060850,-16.079601,-95.079918,59.831188
783,226022141,-158.034988,-38.811588,-179.506287,-1.590166,0.171066,0.795689,-36.858913,-101.630898,62.039825
784,226038808,-158.581879,-36.758404,-179.906006,-1.478929,0.098810,0.829743,-45.906525,-108.653908,63.273781
785,226055475,-159.068649,-34.660271,179.617401,-1.124450,-0.318813,0.591955,-44.294933,-110.207214,67.246910
786,226072142,-159.474777,-32.539791,179.050858,-0.985656,-1.137705,0.075381,-41.578766,-110.186882,71.626579
787,226088809,-159.948654,-30.430914,178.397415,-0.683862,-1.235456,-0.764420,-47.311749,-108.316231,75.338303
788,226105476,-160.641434,-28.206493,177.654312,-0.757712,0.033074,-1.564851,-61.805878,-113.777237,81.693451
789,226122143,-161.584595,-25.817385,176.857407,-0.331821,0.868172,-0.767538,-76.709938,-123.084038,86.793282
790,226138810,-162.757980,-23.321709,175.996475,0.677162,0.631251,0.188966,-90.281166,-129.418808,90.645988
791,226155477,-164.160095,-20.798422,175.000122,1.204926,-0.338231,0.525890,-104.977081,-130.614319,96.279999
792,226172144,-165.424347,-18.398909,173.791641,1.265043,-1.437125,-0.286561,-98.578636,-122.265251,103.733170
793,226188811,-166.254440,-16.229872,172.328918,1.493383,-1.611740,-1.449763,-74.346397,-106.940392,113.117027
794,226205478,-166.764053,-14.270687,170.656433,2.231867,-0.538003,-2.374493,-55.408848,-92.968674,121.590385
795,226222145,-166.917236,-12.508118,168.884705,2.600837,-0.491335,-1.585655,-32.254612,-80.673874,124.788963
796,226238812,-166.423538,-10.948609,166.991638,3.253699,-0.913059,-0.553180,8.070195,-66.640533,129.798752
797,226255479,-165.704056,-9.464336,165.008911,3.300038,-1.937775,-0.278509,23.617649,-59.455883,135.088943
798,226272146,-165.086853,-8.011423,162.887680,3.179516,-2.108040,-0.619771,19.213812,-53.842995,143.714462
799,226288813,-164.697342,-6.673147,160.614838,3.379690,-1.389668,-0.406279,7.448896,-43.459297,151.503677
800,226305480,-164.655884,-5.357678,158.273087,3.611939,-1.537920,-0.560475,-10.734893,-40.371910,155.616074
801,226322147,-165.035889,-4.005499,155.917343,3.586505,-2.145451,-1.061929,-32.834892,-42.642742,157.174545
802,226338814,-165.769531,-2.648766,153.651382,3.195434,-2.457316,-0.593431,-50.410439,-45.713676,151.851974
803,226355481,-166.662170,-1.260287,151.492828,3.240777,-2.550694,0.335546,-56.485252,-51.198154,145.544342
804,226372148,-167.717346,0.140945,149.503403,2.782861,-2.722019,0.461923,-62.990540,-56.629913,135.013184
805,226388815,-168.482147,1.359398,147.708099,1.741941,-3.155983,-0.325047,-43.005062,-50.424835,120.448540
806,226405482,-169.125687,2.385377,146.207748,1.480591,-2.262697,-0.449227,-34.210098,-44.005901,100.189888
807,226422149,-169.701950,3.327762,145.165451,0.853425,-1.795565,-0.183831,-30.006721,-45.185188,71.760147
808,226438816,-169.963409,4.028891,144.541138,0.740167,-1.151837,0.496469,-11.838433,-35.881332,44.195873
809,226455483,-170.154068,4.560213,144.321045,1.032079,-1.056086,-0.180144,-9.008592,-30.194750,18.449305
810,226472150,-170.232666,4.924863,144.379013,0.756280,-1.372058,-0.714301,-3.563579,-23.210581,0.285192
811,226488817,-170.073624,5.001256,144.593155,0.795338,-1.279513,-0.030835,9.868090,-7.759157,-11.851456
812,226505484,-169.682739,4.914992,144.844177,0.743145,-1.013184,0.154540,23.583683,1.410528,-15.705344
813,226522151,-169.223389,4.766030,145.053772,1.054784,-0.572547,0.262560,27.931137,5.451483,-13.977653
814,226538818,-168.933182,4.693716,145.231934,1.414457,-0.166240,0.201242,17.962181,1.205931,-11.307512
815,226555485,-168.875092,4.703942,145.402359,1.335644,0.154220,0.423944,4.083800,-3.592862,-9.906164
816,226572152,-169.037231,4.785823,145.605881,1.045640,0.100961,0.650927,-9.299159,-8.177937,-11.028825
817,226588819,-169.372711,4.921129,145.879822,0.944200,0.253715,0.702633,-20.077284,-12.062819,-14.591926
818,226605486,-169.826630,5.054144,146.288284,0.995547,0.182558,0.341413,-27.918737,-13.274578,-22.598171
819,226622153,-170.350708,5.128044,146.836853,1.170254,0.155523,-0.166534,-32.915581,-11.024278,-31.555870
820,226638820,-170.873077,5.055037,147.511292,0.913413,0.078643,0.396999,-33.480442,-3.262065,-40.506348
821,226655487,-171.376923,4.870224,148.279617,0.645177,-0.661431,0.993654,-32.762325,2.865383,-47.110535
822,226672154,-171.752365,4.523758,149.118774,0.650530,-1.096051,0.708771,-25.196913,12.200987,-52.710728
823,226688821,-171.892044,3.943523,149.997192,1.006350,-1.131676,0.821131,-10.823248,25.987978,-56.999832
824,226705488,-171.763092,3.184886,150.941391,1.374271,-0.728619,1.239501,5.657405,36.029209,-62.460823
825,226722155,-171.426941,2.340126,151.982651,1.563671,-0.405069,0.982201,18.599993,40.038639,-69.160805
826,226738822,-171.045547,1.422016,153.123383,1.248064,-0.727469,0.700886,22.077158,43.047096,-76.022514
827,226755489,-170.572327,0.327536,154.301056,0.666678,-1.552866,0.484481,28.751814,52.573586,-80.254639
828,226772156,-170.057495,-1.060465,155.465469,0.996753,-1.470422,0.648142,32.764740,69.378326,-82.899025
829,226788823,-169.664658,-2.600243,156.622955,1.341428,-1.514714,0.722403,27.209192,77.769615,-84.615799
830,226805490,-169.416016,-4.172112,157.786346,1.473961,-1.359839,0.701279,20.456392,79.148415,-85.668732
831,226822157,-169.200912,-5.738457,159.001175,1.839192,-1.337749,0.818707,20.610006,77.939056,-88.816437
832,226838824,-168.993637,-7.286001,160.307663,1.868147,-1.786707,0.124778,22.729641,75.516937,-94.066811
833,226855491,-168.860092,-8.851342,161.679520,1.666303,-2.287199,-0.652682,20.957993,75.601021,-98.044823
834,226872158,-168.692459,-10.512747,163.047958,1.329489,-2.463860,-0.722333,25.246008,81.114738,-98.822014
835,226888825,-168.508835,-12.238710,164.331100,1.350802,-2.664385,-0.666883,27.567955,85.695435,-94.489326
836,226905492,-168.318497,-13.954764,165.579147,1.199837,-2.235289,-0.767466,29.739225,85.322388,-92.165771
837,226922159,-168.050873,-15.696598,166.864044,1.106983,-1.660141,-1.051991,37.119804,86.145569,-94.392830
838,226938826,-167.593582,-17.527536,168.185913,0.688358,-1.225980,-0.933538,51.435482,90.464783,-97.516678
839,226955493,-167.023239,-19.393913,169.488174,0.135923,-1.710860,-0.581970,60.275814,92.076630,-96.965263
840,226972160,-166.635437,-21.167454,170.780411,-0.173241,-1.608768,-0.382829,51.445656,86.153168,-95.124634
841,226988827,-166.519165,-22.763304,172.103180,-0.051705,-0.680417,-0.252398,37.956207,75.155861,-93.892693
842,227005494,-166.632568,-24.216015,173.448120,-0.025536,0.174708,0.578326,26.649914,66.700562,-92.298576
843,227022161,-166.858444,-25.526915,174.804306,0.025654,0.164844,0.735409,21.958944,58.731239,-89.968704
844,227038828,-167.283401,-26.691088,176.123322,-0.215305,-0.384386,0.286595,10.618918,51.273788,-84.971466
845,227055495,-167.839249,-27.767445,177.355972,-0.082766,-0.428959,-0.094322,1.771920,47.991074,-78.211029
846,227072162,-168.431793,-28.795244,178.498642,0.015082,-0.269879,-0.189753,-1.789542,47.023674,-71.849792
847,227088829,-168.965408,-29.904301,179.551483,-0.051391,-0.569454,-0.213840,0.221677,53.545498,-67.120903
848,227105496,-169.333557,-31.096661,-179.469833,-0.073192,-0.180605,0.087030,8.987706,59.816597,-63.248337
849,227122163,-169.478348,-32.386276,-178.544937,0.167965,-0.058746,0.139130,21.778362,66.456993,-60.708321
850,227138830,-169.462158,-33.717403,-177.681839,-0.040251,0.372151,-0.318496,30.483900,69.663612,-57.367332
851,227155497,-169.373672,-35.057724,-176.902420,-0.182542,0.623991,-0.687736,32.992058,71.033340,-52.803993
852,227172164,-169.286835,-36.365643,-176.197266,-0.184382,0.492210,-0.502010,31.179039,69.823776,-48.391094
853,227188831,-169.253433,-37.590260,-175.594879,-0.039126,0.401135,-0.301817,25.022718,65.879944,-42.152500
854,227205498,-169.325836,-38.772022,-175.099121,-0.081929,0.133829,-0.321148,15.321356,64.386002,-36.257027
855,227222165,-169.485703,-39.889870,-174.716644,-0.487002,0.909183,-0.475398,6.234485,61.722317,-29.886381
856,227238832,-169.760239,-40.884575,-174.365158,-0.921032,1.005812,-0.575753,-1.520953,54.870026,-26.656382
857,227255499,-170.183701,-41.696037,-174.016281,-2.081109,0.876144,-1.647385,-10.301242,44.257347,-24.070078
858,227272166,-170.726898,-42.482140,-173.613068,-1.932176,-0.421943,-0.722374,-15.077723,42.577698,-25.625748
859,227288833,-171.218994,-43.307781,-173.262680,-0.862281,-0.576709,0.724730,-13.915350,45.538376,-23.084146
860,227305500,-171.440765,-44.167446,-173.007782,-0.042766,-0.568987,1.428878,-1.433505,48.348579,-18.803320
861,227322167,-171.351624,-45.025993,-172.817047,-0.438529,-0.070126,0.710931,14.681045,48.737095,-15.869212
862,227338834,-170.966507,-45.930489,-172.626770,-1.151653,-0.400250,-0.034324,32.545803,51.413494,-16.358959
863,227355501,-170.326950,-46.888000,-172.544998,-1.441439,-0.253823,-0.326616,43.226524,55.147678,-12.785894
864,227372168,-169.553635,-47.881817,-172.605621,-0.963606,-0.277527,0.304119,45.023289,58.145451,-8.103015
865,227388835,-169.005569,-48.787426,-172.804779,-0.513439,0.289113,0.809178,25.259207,53.861252,-2.415628
866,227405502,-168.673752,-49.688477,-173.131821,-0.668914,0.560651,0.833377,6.356493,54.513668,1.990250
867,227422169,-168.576859,-50.626068,-173.623825,-1.789761,0.617226,0.061050,-15.540948,57.868668,7.335513
868,227438836,-168.584167,-51.638302,-174.298035,-1.820228,0.978593,0.297884,-30.615145,63.539345,12.747499
869,227455503,-168.485367,-52.746681,-175.117905,-1.383802,1.790446,0.795324,-31.611855,70.143967,16.229744
870,227472170,-168.274185,-53.851345,-175.971649,-1.224162,1.872884,0.844730,-27.063341,70.058189,16.537680
871,227488837,-167.918121,-54.916557,-176.886017,-1.318555,1.939277,0.941200,-21.890940,68.097282,17.986919
872,227505504,-167.321304,-55.986752,-177.881119,-1.143472,2.150595,1.011862,-12.016344,68.941681,19.221350
873,227522171,-166.608521,-56.977856,-178.900040,-1.644477,2.939209,0.612988,-6.840148,64.509216,19.399839
874,227538838,-165.993484,-57.843533,-179.835739,-2.150506,3.017915,0.503326,-9.027411,56.581959,17.014658
875,227555505,-165.449631,-58.659565,179.269150,-1.591962,2.721106,1.066848,-11.653913,53.371902,15.261136
876,227572172,-164.965347,-59.427078,178.444672,-0.745850,2.620537,1.437400,-11.971302,49.968010,12.806417
877,227588839,-164.576263,-60.121674,177.704742,-0.263656,2.346121,1.385663,-13.611034,45.029991,10.588397
878,227605506,-164.314819,-60.728558,177.026901,-0.427626,2.477620,0.827615,-18.274439,39.411098,9.555811
879,227622173,-164.223434,-61.209534,176.472137,-1.358001,2.439544,0.023607,-22.203129,31.106386,7.716758
880,227638840,-164.311478,-61.611202,175.995804,-1.192990,2.101236,0.173458,-28.950781,25.848717,6.632298
881,227655507,-164.546738,-61.934887,175.592194,-0.527536,1.667168,0.507203,-34.020020,20.724609,5.832532
882,227672174,-164.778519,-62.223118,175.245667,-0.231216,0.985667,0.569632,-30.843208,18.195166,4.834534
883,227688841,-164.898575,-62.500542,174.891815,-0.204412,0.768036,0.428722,-24.572611,17.581594,5.175530
884,227705508,-164.915924,-62.755962,174.507584,-0.432566,0.863628,0.130877,-20.073732,16.495943,6.270676
885,227722175,-164.917709,-63.015312,174.169159,-0.512010,0.648476,0.004467,-16.739033,16.369333,4.917245
886,227738842,-164.845718,-63.291512,173.888718,-0.349014,0.248604,0.234999,-9.250154,16.915489,3.046423
887,227755509,-164.611557,-63.567341,173.612259,-0.259111,0.079489,0.403017,0.658682,16.850803,2.833164
888,227772176,-164.219833,-63.826138,173.301163,-0.013328,0.219475,0.410492,8.213460,16.111605,3.830173
889,227788843,-163.756989,-64.033310,173.023956,-0.164361,0.226038,0.351863,14.273930,12.894647,3.633211
890,227805510,-163.276779,-64.170929,172.778748,-0.617035,0.480707,0.070290,17.021935,8.673695,3.855094
891,227822177,-162.764862,-64.229744,172.535263,-0.935497,0.412651,0.108667,19.005476,4.160424,5.089859
892,227838844,-162.339539,-64.210991,172.290192,-0.600356,0.666627,0.216327,13.724787,-0.228030,6.478117
893,227855511,-162.010696,-64.102242,172.109406,-0.104522,1.071189,0.636790,11.417055,-5.840596,6.542148
894,227872178,-161.788696,-63.946922,172.024292,-0.013616,0.822182,0.937204,10.179039,-9.241312,5.069045
895,227888845,-161.727951,-63.720982,172.047272,-0.555094,0.863572,0.869042,6.335020,-14.140785,3.716784
896,227905512,-161.850952,-63.434814,172.218338,-1.139894,0.998155,0.706787,3.266309,-18.813053,1.081389
897,227922179,-162.078384,-63.134815,172.566116,-1.063290,0.730616,1.026463,6.452062,-21.099689,-3.289342
898,227938846,-162.377426,-62.820938,173.075302,-0.774487,0.790510,1.337843,10.734911,-23.256121,-7.408261
899,227955513,-162.672134,-62.498589,173.715286,-0.645163,1.049301,1.444581,17.891029,-24.831669,-10.949623
900,227972180,-162.929718,-62.161026,174.454590,-0.825612,1.446551,1.396002,25.297079,-26.529856,-13.619897
901,227988847,-163.248459,-61.745861,175.296158,-1.132696,1.949010,1.031171,26.911112,-31.829163,-15.395324
902,228005514,-163.641510,-61.239716,176.332855,-1.304144,2.045560,1.019267,32.556431,-38.658344,-19.722342
903,228022181,-164.083725,-60.652878,177.512405,-1.259256,1.890441,1.236962,36.822784,-44.470207,-23.138700
904,228038848,-164.575150,-59.972263,178.719498,-1.206967,1.799621,1.337713,34.928051,-50.102718,-23.409504
905,228055515,-165.141266,-59.195435,179.921555,-1.190541,1.998632,1.114569,29.732716,-55.626434,-22.969017
906,228072182,-165.807053,-58.293991,-178.877945,-1.413563,1.962876,0.815578,23.141615,-62.829941,-22.502947
907,228088849,-166.577179,-57.270359,-177.711243,-1.740657,2.024062,0.362329,14.538422,-69.650772,-21.468138
908,228105516,-167.548874,-56.099411,-176.651825,-1.864310,2.324833,0.025894,-3.649104,-77.394638,-18.175863
909,228122183,-168.959183,-54.702618,-175.715668,-1.734386,2.401809,-0.085922,-36.835690,-89.657372,-14.038540
910,228138850,-170.727478,-53.131802,-174.962143,-1.168747,2.305100,0.114751,-67.994606,-98.588295,-9.459084
911,228155517,-172.679565,-51.457516,-174.459106,-1.097161,2.219545,0.197246,-91.667648,-103.198166,-3.637145
912,228172184,-174.658478,-49.694813,-174.209457,-1.440682,1.659924,0.049426,-105.569832,-107.303665,2.342347
913,228188851,-176.442749,-47.942600,-174.193985,-1.872050,1.183766,-0.228485,-104.757141,-106.010513,7.678169
914,228205518,-177.926041,-46.210011,-174.412994,-2.320835,1.482088,-0.873245,-97.011093,-104.550964,14.172711
915,228222185,-179.247314,-44.419529,-174.782440,-2.590140,1.635438,-0.975409,-93.418266,-108.185272,18.355616
916,228238852,179.821274,-42.585529,-175.178070,-2.400415,1.367552,0.473694,-70.598793,-111.140289,17.884214
917,228255519,179.381821,-40.812321,-175.472641,-2.053777,0.795516,2.149219,-36.490162,-107.682365,12.565868
918,228272186,179.207932,-39.042198,-175.728088,-2.150358,1.253309,2.273643,-18.629953,-107.554092,10.547480
919,228288853,179.059357,-37.114552,-175.981827,-2.895979,1.709562,0.923125,-16.656662,-117.048424,10.329300
920,228305520,178.714310,-34.892345,-176.350616,-2.667100,3.064775,-0.558734,-32.048679,-134.889893,15.395460
921,228322187,177.964645,-32.390938,-176.726425,-1.590883,1.779945,0.122092,-55.788216,-151.814224,14.496337
922,228338854,177.199402,-29.940842,-177.025116,-0.275843,-2.451302,1.953469,-53.495625,-148.779388,9.187492
923,228355521,176.671692,-27.733351,-177.552307,0.995063,-2.504878,2.457623,-45.237530,-135.001984,20.636011
924,228372188,176.468918,-25.706018,-178.270828,0.517764,-1.213128,1.727221,-29.885193,-124.981880,31.194384
925,228388855,176.346634,-23.666161,-179.179062,-0.110336,1.613938,-0.569365,-28.439533,-126.509026,41.766933
926,228405522,175.695740,-21.397051,179.914978,-0.188226,1.901030,-2.046805,-58.216297,-140.560181,40.650681
927,228422189,174.572708,-19.091614,179.030579,0.262556,-0.500209,-0.541078,-84.064766,-143.314713,37.873539
928,228438856,173.444183,-17.035007,178.026657,0.942788,-2.674922,0.993418,-84.716827,-129.964081,44.055759
929,228455523,172.660965,-15.464182,176.812729,0.563974,-4.191969,0.991423,-65.725029,-103.275948,57.979317
930,228472190,171.925873,-14.352717,175.333984,1.013592,-3.480793,0.724151,-65.309296,-78.841934,75.973763
931,228488857,171.142502,-13.096455,173.703705,-0.173927,-0.395863,-3.046224,-68.610245,-89.799026,82.837860
932,228505524,170.494141,-11.669053,172.089630,0.137931,2.673206,-4.768339,-58.078293,-100.897354,79.650375
933,228522191,169.961212,-10.184294,170.661880,1.271807,1.079683,-3.297886,-46.617435,-103.330055,67.699005
934,228538858,169.331589,-8.618470,169.253235,1.024192,-1.659701,-1.578525,-49.986839,-108.662399,65.064705
935,228555525,168.925766,-7.090709,167.728745,1.135153,-3.634100,0.138209,-35.269466,-108.361877,71.616852
936,228572192,168.918716,-5.541039,165.887619,1.287611,-2.762703,0.109052,-11.022182,-113.586273,89.800293
937,228588859,168.947281,-3.839246,163.681549,2.099974,0.179382,-1.746077,-7.577500,-126.763275,109.780899
938,228605526,168.857025,-2.086088,161.334030,2.946780,-0.326566,-2.134606,-11.166652,-131.521210,117.700073
939,228622193,168.765381,-0.376931,158.938293,3.598649,-2.442855,-0.585531,-7.066728,-129.698669,120.995079
940,228638860,168.752411,1.227165,156.499695,3.651962,-4.436981,1.293829,1.814928,-124.117050,124.661324
941,228655527,168.917648,2.728662,153.943817,3.830078,-5.361843,0.132915,16.689981,-119.236946,132.841354
942,228672194,169.327393,4.100423,151.281601,3.975023,-4.123034,-2.428703,35.555759,-112.068939,140.986877
943,228688861,170.058533,5.151528,148.844833,3.847541,-3.713958,-2.767447,57.100788,-89.258324,132.037796
944,228705528,170.841156,5.850499,146.818420,2.746299,-3.395680,-0.937160,60.047020,-62.554577,112.341225
945,228722195,171.790817,6.314694,145.315445,1.495953,-2.911197,1.616615,67.961739,-42.174480,84.398254
946,228738862,172.755585,6.619783,144.384766,0.769164,-2.044303,1.035918,65.595406,-26.690699,52.484371
947,228755529,173.614594,6.883078,143.949707,1.188836,-0.852587,-0.674845,56.023949,-19.846029,23.834146
948,228772196,174.179688,7.139424,143.877487,3.153847,0.886783,-0.855554,35.850945,-16.827971,2.613477
949,228788863,174.181793,7.426363,144.049316,2.572480,0.345643,-0.370032,0.248335,-17.157589,-11.946241
950,228805530,174.025497,7.649507,144.310318,1.019350,-0.990635,-0.834966,-9.993249,-12.780748,-16.842007
951,228822197,174.056061,7.675879,144.500351,0.266746,-1.512739,-0.609498,1.750315,-1.452036,-11.424767
952,228838864,174.530289,7.527055,144.634903,0.114905,-0.252441,0.931137,28.815834,8.634294,-7.096124
953,228855531,175.455307,7.242960,144.806366,0.939458,0.694707,1.263722,55.608829,16.825703,-8.696026
954,228872198,176.465240,6.887685,145.012329,1.978287,1.005311,0.823730,60.510422,21.084028,-10.753165
955,228888865,177.219879,6.553958,145.253998,1.893194,0.381920,0.100958,45.025520,19.748270,-13.295456
956,228905532,177.671005,6.230438,145.574524,1.388098,0.002122,0.359928,26.378119,19.212048,-18.247692
957,228922199,178.108475,5.789323,146.073135,1.662873,-0.194985,0.829494,24.570866,26.518148,-28.776239
958,228938866,178.618393,5.243876,146.744308,1.558810,-0.759570,0.491945,28.181845,32.839172,-39.150635
959,228955533,179.130875,4.538143,147.569305,1.701989,-1.300087,0.426600,27.985670,42.293625,-48.493893
960,228972200,179.673660,3.691015,148.556641,1.756347,-1.840286,0.071973,29.771532,50.440468,-58.566994
961,228988867,-179.732559,2.768523,149.628815,2.244895,-1.516555,-0.715930,33.452274,54.393631,-64.210106
962,229005534,-179.151840,1.916347,150.723526,2.641833,-0.835621,-1.711967,33.606838,49.513718,-66.129936
963,229022201,-178.588501,1.134712,151.915436,1.963331,-0.650138,-1.141109,33.343266,44.517548,-72.406754
964,229038868,-178.279831,0.424050,153.263046,1.148863,-1.953499,0.467740,18.867332,39.462772,-81.989426
965,229055535,-178.228149,-0.322879,154.658142,0.892353,-2.788496,1.564812,4.465887,41.301666,-85.035583
966,229072202,-178.225189,-1.190177,156.067505,0.380446,-2.218825,1.038306,2.718555,48.462158,-86.125374
967,229088869,-178.284760,-2.131578,157.457306,1.047341,-1.498652,0.866699,0.255694,52.990250,-85.035690
968,229105536,-178.514755,-3.000954,158.900589,1.566391,-1.041108,1.020848,-8.518757,48.803623,-87.931732
969,229122203,-179.050018,-3.723730,160.420288,2.041040,-0.762607,0.805499,-25.368011,40.507992,-91.924126
970,229138870,179.949570,-4.293062,161.992752,1.561314,-1.336424,0.544042,-52.032398,32.515282,-94.378319
971,229155537,178.739899,-4.919070,163.531097,0.817663,-2.871375,0.465355,-63.779202,37.712582,-91.558990
972,229172204,177.706314,-5.821914,164.975647,0.505199,-3.230455,0.088563,-52.529922,55.926498,-84.558578
973,229188871,176.973557,-6.940629,166.353775,0.587703,-1.840126,-0.167697,-33.424320,69.972832,-78.957565
974,229205538,176.435303,-8.115896,167.820160,1.104820,-1.708215,-0.173318,-19.430965,74.522774,-83.012711
975,229222205,176.010773,-9.329234,169.394455,0.697611,-1.826549,0.020688,-9.822351,77.904068,-88.353409
976,229238872,175.680206,-10.689101,170.996109,0.522982,-2.585971,0.039331,-1.819011,87.345764,-88.466148
977,229255539,175.541916,-12.245615,172.517395,0.223585,-2.496969,-0.043907,11.141931,99.074432,-82.038109
978,229272206,175.673309,-14.057517,173.938507,0.305585,-2.097640,0.004445,28.559254,113.864044,-74.460106
979,229288873,176.127060,-16.040106,175.324203,0.173988,-1.344791,0.289804,50.069458,123.499969,-71.589455
980,229305540,176.768036,-18.125854,176.771759,0.681482,-1.158199,0.872438,65.218529,129.154129,-75.128685
981,229322207,177.488159,-20.235720,178.244522,0.689474,-0.610856,1.186706,73.476860,129.719223,-77.041496
982,229338874,178.392502,-22.331003,179.696426,0.163477,-0.927324,1.304751,87.110245,127.658150,-76.642494
983,229355541,179.692673,-24.529211,-178.983170,-0.058270,-0.832090,1.559371,110.731865,132.190842,-70.533493
984,229372208,-178.710159,-26.845009,-177.849396,-0.099244,0.269075,0.118460,126.527534,137.516907,-62.559307
985,229388875,-177.267548,-29.157269,-176.920486,-0.241139,2.109014,-1.228838,113.937943,136.016891,-54.128239
986,229405542,-176.236084,-31.336737,-176.058151,-0.586434,1.866472,-1.227634,89.181404,127.113029,-52.118057
987,229422209,-175.620224,-33.393078,-175.242523,-0.667050,1.714827,-0.213146,64.391991,119.212784,-50.079895
988,229438876,-175.475174,-35.360897,-174.454102,-0.371785,1.163931,0.666084,36.670830,113.754829,-48.180775
989,229455543,-175.687653,-37.295074,-173.714951,-0.244896,0.745061,1.094619,14.789048,112.021347,-44.655697
990,229472210,-176.185944,-39.175385,-173.054657,-0.282215,1.117139,0.157779,-4.105989,109.395180,-39.127899
991,229488877,-177.163300,-40.825996,-172.368668,-0.368293,1.462559,-0.582461,-30.902382,96.106384,-37.315823
992,229505544,-178.590714,-42.315193,-171.532944,0.202243,0.672453,-0.142167,-51.083721,86.964233,-40.889339
993,229522211,179.798447,-43.756195,-170.533508,0.395458,-0.433709,0.488402,-54.432541,85.055969,-44.831463
994,229538878,178.236221,-45.157520,-169.460144,0.382208,-1.607701,0.580758,-47.335499,83.917854,-44.612980
995,229555545,176.756393,-46.614853,-168.386078,0.082061,-1.276686,0.597241,-41.234898,88.378593,-41.095352
996,229572212,175.372650,-48.073242,-167.356796,-0.677430,0.177840,0.482423,-36.323689,89.227394,-35.846752
997,229588879,173.895432,-49.475151,-166.296936,-1.489406,0.419230,0.151649,-39.518528,86.719482,-33.964764
998,229605546,172.123901,-50.793316,-165.158997,-1.847609,-0.307135,-0.470970,-52.593018,82.876724,-33.920135
999,229622213,170.029556,-52.102863,-163.874802,-2.036513,-0.695415,-0.398546,-64.105865,84.107704,-35.360035
1000,229638880,168.010529,-53.602955,-162.439377,-1.616344,-0.135268,-0.327191,-51.189438,97.288010,-34.026409
1001,229655547,166.221542,-55.258377,-160.925613,-1.104990,0.807104,-0.428348,-32.153893,107.619942,-29.470184
1002,229672214,164.730591,-57.021759,-159.258423,-0.912940,1.034647,-0.714929,-5.078650,115.403862,-27.535803
1003,229688881,163.525040,-58.912643,-157.461838,-0.909995,1.621362,-1.008474,20.371828,123.766197,-24.084263
1004,229705548,162.452820,-60.851891,-155.551300,-1.325034,1.497742,-1.406160,36.150948,127.083473,-21.078300
1005,229722215,161.432617,-62.813869,-153.625259,-1.751357,2.280827,-1.335297,42.002270,127.817841,-15.487463
1006,229738882,160.249908,-64.636749,-151.725296,-2.296583,2.849601,-0.956861,32.608215,118.856766,-11.880976
1007,229755549,158.923187,-66.275726,-149.877411,-2.265699,2.277303,-0.615102,22.611261,107.199623,-8.958923
1008,229772216,157.671524,-67.801727,-148.174789,-1.898437,2.688587,-0.185201,20.330687,98.775497,-3.254850
1009,229788883,156.536652,-69.210785,-146.664291,-1.649225,3.120396,0.173423,17.614033,89.765045,2.226712
1010,229805550,155.459976,-70.432518,-145.477707,-2.343983,3.640774,0.375877,3.611676,75.923325,7.324378
1011,229822217,154.238449,-71.321030,-144.476425,-2.677187,3.086817,0.788450,-15.135658,55.575787,4.799153
1012,229838884,153.566483,-72.163948,-144.105804,-1.954091,3.069031,0.886034,-17.796124,47.438976,15.966930
1013,229855551,153.193024,-72.882759,-143.978638,-1.510578,2.800052,0.801064,-13.717039,38.526627,17.263365
1014,229872218,152.818787,-73.484489,-143.953949,-0.935738,2.815594,0.791150,-19.616774,31.310595,16.008074
1015,229888885,152.947357,-74.229958,-144.300003,-0.910614,2.269966,1.209141,-10.806096,36.120110,25.539095
1016,229905552,153.487579,-74.798676,-144.794449,-0.919866,2.214114,0.125492,5.250555,25.833185,22.472733
1017,229922219,154.190826,-75.231148,-145.491882,-1.073817,1.446057,0.595905,3.204913,17.460199,21.188343
1018,229938886,155.099167,-75.590164,-146.259232,-0.915363,0.838328,0.406453,11.380116,13.433234,19.745846
1019,229955553,156.011032,-75.870941,-147.150482,-0.900523,0.865066,0.509618,4.323604,8.815605,19.017044
1020,229972220,157.033447,-76.115112,-148.161346,-0.324873,0.266104,0.617831,3.931702,6.510714,19.350904
1021,229988887,158.145126,-76.259613,-149.246964,-0.056819,0.273573,0.612197,4.886845,1.018004,17.734882
1022,230005554,159.194504,-76.280411,-150.348007,-0.164770,0.331043,0.600644,0.227883,-5.615219,15.111104
1023,230022221,160.116470,-76.236366,-151.341858,-0.246976,0.039646,0.629994,-1.165154,-8.477060,12.415854
1024,230038888,161.007065,-76.157768,-152.276566,-0.615554,0.339981,0.524021,0.412089,-9.970941,11.102607
1025,230055555,161.864105,-76.017067,-153.115570,-0.552554,0.247886,0.619193,4.001597,-12.934708,8.840583
1026,230072222,162.682648,-75.851898,-153.773254,-0.351320,0.255481,0.909797,12.279504,-13.432647,6.174403
1027,230088889,163.546539,-75.683464,-154.310822,-0.247693,0.434140,1.090751,22.016518,-13.056296,4.708106
1028,230105556,164.370758,-75.502823,-154.671585,-0.278292,0.462624,0.984884,29.934797,-12.980873,2.239730
1029,230122223,165.032089,-75.241135,-154.802826,-0.927468,1.116085,0.669950,33.507664,-16.748318,-2.164553
1030,230138890,165.352295,-74.841255,-154.684219,-1.232433,1.320689,0.472594,27.538101,-23.808388,-7.842903
1031,230155557,165.563782,-74.320366,-154.497299,-1.129845,1.450222,0.711625,24.957140,-30.588081,-10.662719
1032,230172224,165.905426,-73.731590,-154.364044,-0.886283,1.106853,1.020657,29.643459,-34.784092,-10.760011
1033,230188891,166.354553,-73.038223,-154.295853,-0.941970,1.120790,1.192035,32.329227,-41.197422,-11.026634
1034,230205558,166.958344,-72.266335,-154.267960,-0.987791,1.555407,1.263951,39.292694,-46.038277,-11.087629
1035,230222225,167.703659,-71.372925,-154.336121,-1.576160,2.278495,1.254797,42.305328,-53.669895,-10.418846
1036,230238892,168.302032,-70.277771,-154.425354,-2.582023,2.449918,1.317484,32.325062,-65.730812,-11.835690
1037,230255559,168.735794,-68.955116,-154.579453,-2.841715,2.319966,1.157084,18.850285,-79.511765,-12.528087
1038,230272226,169.066574,-67.433777,-154.802277,-2.571044,2.164341,1.149810,8.936983,-91.635605,-12.576408
1039,230288893,169.395950,-65.762306,-155.151947,-2.189359,2.317799,0.845977,2.023176,-101.194366,-10.423213
1040,230305560,169.759171,-63.925003,-155.690018,-2.360566,2.750826,0.367136,-5.902632,-112.020233,-6.308855
1041,230322227,170.038361,-61.912701,-156.394409,-2.916131,2.905385,-0.344279,-19.336485,-123.366074,-2.090009
1042,230338894,170.201416,-59.737621,-157.330490,-3.274523,2.866447,-1.095458,-37.699299,-134.401871,4.731612
1043,230355561,170.288452,-57.427261,-158.484604,-2.649014,1.998518,-1.635749,-52.294903,-143.879745,12.240386
1044,230372228,170.512466,-55.135811,-159.726913,-1.411581,0.976742,-1.339572,-46.966164,-143.619446,18.023010
1045,230388895,170.934998,-52.977112,-161.030304,-0.148216,1.084906,-0.405897,-36.360058,-136.393326,24.571171
1046,230405562,171.637390,-51.003502,-162.410004,-0.184377,1.120785,-0.361117,-21.473963,-125.937340,32.587116
1047,230422229,172.607285,-49.179111,-163.912720,-1.438126,0.739190,-1.117462,-9.355159,-117.526573,42.430779
1048,230438896,173.682404,-47.358826,-165.518463,-1.575965,0.617709,-1.691907,-5.775048,-117.266739,50.762562
1049,230455563,174.901581,-45.525692,-167.009872,-0.836332,-0.397627,-0.502738,9.927444,-116.760689,50.537075
1050,230472230,176.349960,-43.831242,-168.388245,-0.013099,0.226960,0.448656,30.376581,-107.050255,50.992882
1051,230488897,177.850281,-42.134869,-169.786102,0.065030,1.143082,0.500998,34.461918,-105.952065,56.234524
1052,230505564,179.096970,-40.282310,-171.136566,-0.522160,0.707875,-0.146210,23.050039,-113.933441,58.078064
1053,230522231,-179.887802,-38.217667,-172.407684,-0.756579,-0.047165,-0.379103,14.293483,-125.482437,58.300529
1054,230538898,-178.926697,-36.112343,-173.430450,-0.800784,-1.613261,0.245381,22.230679,-127.015167,50.294415
1055,230555565,-177.894089,-34.101326,-174.503998,-0.119404,-0.008509,0.950220,26.543112,-120.367523,56.097267
1056,230572232,-177.285263,-32.005932,-175.548248,0.132928,0.965481,1.925014,3.987849,-124.621460,57.823959
1057,230588899,-177.262543,-29.707197,-176.657715,-0.033557,2.231497,1.330071,-31.137337,-136.270386,63.699902
1058,230605566,-177.950333,-27.135941,-177.781693,-0.416344,1.326846,0.626245,-71.708389,-152.888123,65.756256
1059,230622233,-179.065353,-24.467010,-178.887100,-0.715780,-1.297015,0.754422,-94.100159,-159.759827,63.903286
1060,230638900,179.816132,-21.948198,179.842194,-0.265458,-1.278583,1.487766,-95.496979,-151.907578,71.085922
1061,230655567,178.628448,-19.548958,178.380234,0.656357,-0.037578,2.226904,-100.685822,-146.300980,80.073914
1062,230672234,177.060455,-17.057209,176.699783,1.173081,0.312092,1.879406,-124.091408,-154.248474,90.030205
1063,230688901,175.021713,-14.116042,174.778030,0.746512,2.756940,-0.982578,-151.642975,-184.965225,98.599365
1064,230705568,172.315231,-10.839757,172.766663,0.921512,1.463765,-2.842111,-186.772873,-209.630463,95.410744
1065,230722235,169.629654,-7.571543,170.794952,0.995646,-3.422817,-2.380110,-178.369919,-213.244110,84.514473
1066,230738902,167.583618,-4.683293,168.650925,2.070059,-5.119311,-1.323915,-134.846832,-196.387070,91.079422
1067,230755569,166.334656,-2.089909,166.224274,2.003911,-5.796390,-0.815338,-81.942184,-185.604553,106.399727
1068,230772236,166.082245,0.294072,163.477676,2.337893,-3.093394,-2.399806,-16.186420,-179.395081,125.834465
1069,230788903,166.648636,2.487549,160.576263,4.925779,-1.760157,-2.107249,39.710655,-170.114395,138.018402
1070,230805570,167.001129,4.651386,157.679108,6.811974,-3.836819,0.688396,33.468067,-167.126251,139.245850
1071,230822237,166.752823,6.603487,154.781311,5.722188,-5.448608,2.670353,3.646168,-154.494141,141.844696
1072,230838904,166.316849,8.179808,151.996262,3.504534,-5.924668,-1.445631,-3.182508,-131.684662,139.070679
1073,230855571,166.419479,9.216693,149.402328,2.997333,-4.477308,-3.084984,31.145021,-97.823265,134.794312
1074,230872238,167.103470,9.744520,147.141663,3.158328,-2.393324,0.446035,64.812805,-62.558987,122.936996
1075,230888905,167.697464,10.136683,145.328125,2.407857,-1.782946,2.069687,55.854290,-47.421093,99.426247
1076,230905572,168.219833,10.574043,144.016998,1.514625,-1.090595,1.039430,46.914402,-42.874954,70.178268
1077,230922239,168.797714,10.981563,143.316727,0.797057,-0.669608,0.782496,43.963165,-33.243225,35.547783
1078,230938906,169.194916,11.509775,142.974487,1.655476,-0.088138,-0.276069,29.270380,-36.010178,13.695716
1079,230955573,169.386032,11.958661,142.841736,1.512678,0.231564,-2.080249,14.524344,-28.962440,2.634385
1080,230972240,169.468811,12.109437,142.857666,1.188050,0.144943,-0.091050,6.211320,-9.766537,-2.602393
1081,230988907,169.533722,12.144676,142.853897,0.305680,-0.323125,2.220971,5.390520,-3.160531,-0.190354
1082,231005574,169.597855,12.097984,142.812531,-0.188221,-1.235542,1.439106,5.816574,1.275724,2.872945
1083,231022241,169.851303,11.937226,142.817780,0.584212,-1.153126,-0.590518,16.582760,8.508299,1.397232
1084,231038908,170.370682,11.676659,142.947418,1.660581,-0.229679,-1.532833,31.009272,15.677224,-4.834367
1085,231055575,171.089035,11.298547,143.295929,1.953307,0.303425,-1.011057,40.378387,24.665586,-16.585470
1086,231072242,171.764374,10.876031,143.896942,1.240954,-0.131836,-0.160805,35.033958,29.323376,-31.226622
1087,231088909,172.338318,10.402028,144.653931,0.700932,-0.703267,0.448826,27.501446,33.325310,-40.290764
1088,231105576,172.912247,9.771131,145.553497,0.541389,-1.193265,0.467595,26.431690,43.351391,-47.852669
1089,231122243,173.618347,8.893066,146.650513,0.946332,-1.873128,-0.166718,33.134972,58.930977,-58.331898
1090,231138910,174.585770,7.728178,148.024719,1.750395,-2.192167,-1.041106,47.560566,76.907585,-73.980003
1091,231155577,175.895538,6.384831,149.547028,3.282087,-0.902187,-1.480635,68.788498,86.856415,-83.652710
1092,231172244,177.125183,4.860040,151.241638,3.016410,-2.135430,0.049510,65.239212,96.503113,-95.434204
1093,231188911,178.269150,3.161919,152.953857,2.632871,-3.223851,0.762563,62.869064,104.965317,-98.305946
1094,231205578,179.454819,1.204051,154.626251,2.904518,-3.777733,0.067085,68.720383,118.499916,-97.912888
1095,231222245,-179.459991,-0.888560,156.219864,3.204761,-1.909465,-2.417442,66.236053,124.639832,-95.606018
1096,231238912,-179.158600,-2.870230,157.849457,4.401628,-0.626616,-2.080639,22.680267,116.807449,-99.141502
1097,231255579,-179.524963,-4.812587,159.745605,4.194510,-3.232856,0.391660,-12.964563,114.340034,-114.838898
1098,231272246,179.707870,-6.801984,161.709106,4.579340,-4.730889,1.679513,-32.724026,118.307632,-117.385269
1099,231288913,178.819061,-8.707343,163.734726,4.355267,-5.419777,0.941338,-35.565517,115.014816,-118.926254
1100,231305580,178.096664,-10.533416,165.713470,3.125414,-4.669243,-1.903843,-22.172272,111.852486,-114.042397
1101,231322247,177.681549,-12.363531,167.618439,1.073065,-3.938372,-2.284154,-0.920471,113.050797,-107.883224
1102,231338914,177.760513,-14.223233,169.460236,0.774607,-3.347827,-1.368693,31.414181,114.966507,-103.009453
1103,231355581,178.192062,-16.029413,171.379593,0.654075,-4.100442,0.167157,57.184040,111.425774,-107.272789
1104,231372248,179.083099,-17.924963,173.266312,0.978825,-2.614085,0.700192,87.723526,115.472023,-105.547287
1105,231388915,-179.927231,-19.962168,175.089615,0.515357,-1.183473,0.323991,96.082535,122.186455,-102.597893
1106,231405582,-179.167068,-22.059055,176.645126,0.045202,-0.433595,0.232600,80.251198,124.312668,-88.159981
1107,231422249,-178.752380,-24.187038,178.012756,-0.784168,0.101274,0.268058,58.282394,125.472969,-77.825844
1108,231438916,-178.796326,-26.260784,179.227173,-0.812447,0.559849,0.670941,29.593985,122.161720,-68.629395
1109,231455583,-179.109955,-28.248768,-179.723663,-1.200559,1.115228,0.868796,11.193656,117.403252,-58.205883
1110,231472250,-179.515030,-30.184416,-178.823975,-1.199708,0.824241,1.104782,3.232371,114.723358,-48.585144
1111,231488917,-179.814880,-31.990875,-178.094284,-1.782216,1.295635,0.772731,5.806300,107.315659,-38.212151
1112,231505584,-179.951202,-33.721622,-177.493179,-2.525982,0.708032,-0.204632,12.584838,102.921516,-30.599329
1113,231522251,-179.879593,-35.459003,-177.106918,-2.735963,1.126070,-0.159300,18.656164,103.338982,-19.330299
1114,231538918,-179.446533,-37.286541,-176.876205,-2.612068,1.112927,0.694047,35.400978,108.694946,-11.892748
1115,231555585,-178.681580,-39.184383,-176.825317,-1.510297,1.911431,1.637877,49.004086,112.912804,-4.366955
1116,231572252,-177.706177,-41.112801,-176.898361,-1.330461,1.948262,1.782017,56.923031,114.841301,-0.408841
1117,231588919,-176.445923,-43.083599,-177.161194,-1.790656,2.629406,0.442879,66.279373,117.771561,5.539916
