sep=,
DeviceTag:,DOT10
FirmwareVersion:,3.0.0
AppVersion:,2023.6.0
SyncStatus:,Synced
OutputRate:,60Hz
FilterProfile:,Dynamic
Measurement Mode:,Custom modes - custom mode1
StartTime: ,2026-06-02_17:51:59_049 GMT+2
© Movella Technologies B. V. 2005-2026

PacketCounter,SampleTimeFine,Euler_X,Euler_Y,Euler_Z,FreeAcc_X,FreeAcc_Y,FreeAcc_Z,Gyr_X,Gyr_Y,Gyr_Z
1,384299526,95.566422,-57.757133,60.202183,0.166108,-0.296737,0.219067,90.598808,18.049128,1.465891
2,384316193,96.697990,-57.835712,60.745052,0.108974,-0.621346,0.285376,96.968124,16.744482,2.714699
3,384332860,97.765144,-57.877438,61.339622,0.023844,-0.708842,0.217175,95.750160,18.126400,-0.022796
4,384349527,98.717316,-57.919003,61.967522,0.043042,-0.960339,0.241982,90.558266,19.152813,-0.516419
5,384366194,99.498268,-57.980431,62.615246,0.040876,-0.741532,0.070757,81.312645,19.927052,0.262159
6,384382861,100.010590,-57.966198,63.333813,0.070034,-0.929418,0.179024,68.805870,21.369804,-4.823831
7,384399528,100.288002,-58.059937,64.019661,-0.061398,-0.641460,0.087878,53.065014,21.428619,1.587705
8,384416195,100.352432,-58.171097,64.702972,-0.177349,-0.557580,0.129801,40.198711,21.482262,2.575843
9,384432862,100.250862,-58.300762,65.363480,-0.247673,-0.305621,0.011342,29.119316,20.898756,3.820042
10,384449529,100.068710,-58.428108,66.004097,-0.125705,-0.197016,0.009501,23.315784,20.174582,3.862670
11,384466196,99.836761,-58.536983,66.660233,-0.145430,-0.098714,0.049468,21.161295,20.381733,2.775432
12,384482863,99.607338,-58.624130,67.363152,-0.101393,-0.085675,0.160851,23.743101,21.534754,1.339965
13,384499530,99.395561,-58.672680,68.127792,-0.042520,-0.135530,0.168983,27.992584,23.005909,-1.169532
14,384516197,99.202271,-58.683586,68.948540,-0.094050,-0.256199,0.145289,31.987432,24.353048,-3.590204
15,384532864,99.013992,-58.668373,69.787064,-0.043826,-0.477104,0.204058,33.201309,24.665247,-5.141896
16,384549531,98.823669,-58.646961,70.592598,0.030463,-0.524090,0.250639,31.374815,23.620104,-5.263298
17,384566198,98.547798,-58.632019,71.357529,0.099184,-0.668143,0.385263,24.158499,22.460613,-4.590493
18,384582865,98.157188,-58.642803,72.070450,0.216892,-0.577074,0.404240,14.607565,21.105637,-2.688636
19,384599532,97.636528,-58.681255,72.754227,0.275477,-0.481835,0.438803,5.324416,20.436266,-0.741860
20,384616199,96.977715,-58.741806,73.420998,0.221888,-0.411397,0.484494,-3.822624,20.053652,0.869085
21,384632866,96.254379,-58.820232,74.057220,0.240594,-0.320367,0.352265,-9.233367,19.179251,2.302272
22,384649533,95.587875,-58.902466,74.629898,0.296200,-0.150606,0.110407,-9.059262,17.164547,2.983979
23,384666200,95.048477,-58.982620,75.149063,0.124456,-0.094555,-0.045774,-4.159134,15.428404,3.208230
24,384682867,94.616814,-59.056747,75.635574,-0.016816,-0.235998,-0.037724,0.647855,14.328798,3.076030
25,384699534,94.240013,-59.118504,76.100784,-0.116093,-0.325487,-0.049549,2.862599,13.564796,2.496132
26,384716201,93.921303,-59.163967,76.527779,-0.025013,-0.356600,-0.040815,4.388859,12.282288,1.696644
27,384732868,93.593727,-59.197914,76.924652,0.097610,-0.363456,0.063454,2.315728,11.289860,1.144818
28,384749535,93.241180,-59.229282,77.295555,0.240402,-0.352848,0.106263,-0.515033,10.463643,1.113596
29,384766202,92.836304,-59.242111,77.666412,0.333868,-0.299540,0.163001,-3.650938,10.387445,0.079303
30,384782869,92.395088,-59.242683,78.047615,0.327783,-0.267127,0.262201,-5.296965,10.666344,-0.585814
31,384799536,91.866249,-59.217590,78.451981,0.333769,-0.235663,0.287361,-9.362051,11.326221,-2.051784
32,384816203,91.285675,-59.181644,78.868195,0.221257,-0.287629,0.310654,-11.861035,11.702294,-2.592674
33,384832870,90.677109,-59.136497,79.290367,0.155190,-0.203814,0.173420,-13.241960,11.915765,-3.015912
34,384849537,90.106834,-59.108990,79.674614,0.205811,-0.055566,-0.059560,-12.909032,10.796487,-1.813842
35,384866204,89.652939,-59.102299,80.015572,0.301891,0.099266,-0.205729,-8.153897,9.481500,-0.464858
36,384882871,89.358887,-59.119106,80.331490,0.386366,0.217896,-0.182282,0.145973,8.697965,1.007123
37,384899538,89.241287,-59.162743,80.625809,0.314396,0.203223,-0.063840,9.623253,8.000342,2.644045
38,384916205,89.280930,-59.214066,80.861298,0.168570,0.019963,0.085118,16.038082,6.172251,3.084982
39,384932872,89.445892,-59.251709,81.025200,-0.134870,-0.045006,0.179815,19.868830,3.979163,2.228033
40,384949539,89.613251,-59.272930,81.159988,-0.282105,-0.255749,0.250490,18.516846,3.098340,1.219723
41,384966206,89.691597,-59.282394,81.291283,-0.268458,-0.310444,0.228241,12.994129,2.995913,0.506805
42,384982873,89.671051,-59.285194,81.418022,-0.049309,-0.411706,0.217670,6.824461,2.859242,0.106338
43,384999540,89.595436,-59.279949,81.524010,0.207705,-0.361593,0.103045,2.452179,2.227197,-0.377813
44,385016207,89.507576,-59.264732,81.595734,0.251348,-0.478598,0.075072,-0.048984,1.182122,-0.979199
45,385032874,89.394371,-59.236935,81.657768,0.086935,-0.442618,0.034186,-2.067816,0.895042,-1.732840
46,385049541,89.240204,-59.211906,81.742134,-0.043476,-0.478799,0.011510,-3.380313,1.582257,-1.550568
47,385066208,89.047844,-59.194496,81.837120,-0.045470,-0.443573,0.012315,-5.126498,1.907538,-1.079242
48,385082875,88.876152,-59.175388,81.922203,0.056992,-0.280457,-0.005378,-4.394191,1.611506,-1.177262
49,385099542,88.792274,-59.159950,81.979469,0.207300,-0.200573,0.073176,-0.559087,0.755735,-0.967789
50,385116209,88.785408,-59.148994,82.009483,0.234564,-0.080352,0.173085,2.657683,-0.087967,-0.715580
51,385132876,88.825737,-59.142132,82.042282,0.111680,0.018738,0.251325,5.631997,-0.008081,-0.467829
52,385149543,88.853920,-59.140320,82.111839,-0.159430,0.030765,0.259242,6.797580,1.117373,-0.143662
53,385166210,88.828606,-59.148983,82.224281,-0.293733,-0.019719,0.262713,5.796418,2.423685,0.511876
54,385182877,88.750290,-59.164192,82.351402,-0.237136,-0.030526,0.221188,3.372674,2.866081,0.916301
55,385199544,88.663795,-59.182224,82.449219,-0.053314,0.040114,0.126700,1.372040,1.959160,1.072589
56,385216211,88.646423,-59.198139,82.486847,0.065303,-0.026983,0.103018,2.420009,0.110461,0.902483
57,385232878,88.668976,-59.202366,82.493851,-0.007202,-0.101213,0.091161,3.234109,-0.815047,0.181626
58,385249545,88.680565,-59.197838,82.515152,-0.068960,-0.224634,0.125566,3.316902,-0.362663,-0.335398
59,385266212,88.647804,-59.187893,82.553192,-0.116276,-0.384937,0.136239,1.515279,0.158844,-0.646055
60,385282879,88.565300,-59.167374,82.603554,-0.005247,-0.291174,0.078234,-0.832797,0.554022,-1.269839
61,385299546,88.463158,-59.154377,82.669922,0.017300,-0.226573,0.138245,-1.185458,1.038166,-0.803291
62,385316213,88.304771,-59.151775,82.751480,-0.021419,-0.270054,0.177747,-3.780909,1.489270,-0.160656
63,385332880,88.123405,-59.154991,82.846397,-0.062118,-0.122027,0.177695,-4.470517,1.889673,0.209275
64,385349547,87.940674,-59.171112,82.951347,-0.109292,-0.088401,0.190410,-4.034628,2.170158,1.002334
65,385366214,87.747650,-59.197449,83.079124,-0.129705,-0.065314,0.199734,-3.478128,2.841339,1.653089
66,385382881,87.520134,-59.235218,83.246025,-0.136801,-0.116794,0.247991,-3.522002,4.006832,2.399161
67,385399548,87.221458,-59.280769,83.494789,-0.206281,-0.159001,0.366506,-3.571090,6.473796,3.005965
68,385416215,86.695572,-59.344830,83.913788,-0.274624,-0.516522,0.630174,-8.418506,11.584474,4.447720
69,385432882,85.825996,-59.414299,84.532478,-0.418903,-0.963089,0.769200,-18.704321,17.575291,5.317280
70,385449549,84.523552,-59.526546,85.308655,-0.580642,-1.799791,0.918758,-36.513885,21.984686,8.632108
71,385466216,82.839966,-59.738529,86.070892,-0.325373,-2.038671,0.639318,-60.032986,20.561613,15.119410
72,385482883,81.079216,-60.050827,86.648987,0.017632,-1.454624,0.218818,-74.118332,13.585197,20.928581
73,385499550,79.408890,-60.479454,87.084938,-0.051384,-1.106689,0.206794,-75.979187,7.408229,27.486221
74,385516217,77.760849,-61.003635,87.549156,-0.646457,-1.308893,0.578033,-73.061699,6.094675,33.468449
75,385532884,75.935768,-61.613819,88.256981,-1.013286,-1.759396,0.911706,-70.727753,10.500169,40.238750
76,385549551,73.987282,-62.218277,89.249535,-0.677859,-1.672730,0.650723,-62.847332,16.641123,42.252907
77,385566218,72.067955,-62.823383,90.453392,-0.402011,-1.250925,0.163388,-49.555744,20.256628,44.409523
78,385582885,70.065422,-63.359303,92.036865,-0.818498,-1.285668,0.078526,-33.908398,29.213427,44.324554
79,385599552,67.554077,-63.689781,94.260338,-1.557866,-1.943767,0.010045,-29.743023,47.260189,39.946682
80,385616219,64.116219,-63.618584,97.184547,-1.957771,-2.908190,-0.541478,-47.521355,71.759590,27.948261
81,385632886,59.858406,-63.045780,100.506737,-1.416723,-3.215689,-1.414323,-75.814240,94.088600,11.665622
82,385649553,55.241657,-62.065014,103.810928,-0.672129,-2.733980,-2.163578,-99.533440,107.641327,-0.627187
83,385666220,50.614811,-60.809189,106.781532,-0.014656,-1.881292,-2.027853,-119.536522,112.375511,-8.736222
84,385682887,46.004436,-59.356682,109.331627,-0.420362,-1.053491,-1.652334,-142.478790,113.908600,-14.312467
85,385699554,41.246708,-57.756210,111.597458,-1.352821,-0.522980,-0.866179,-167.950211,117.400803,-14.906746
86,385716221,36.486351,-55.971638,113.393784,-1.457102,1.026320,-0.296739,-193.845505,119.305130,-21.311224
87,385732888,32.187420,-54.052868,114.612854,-0.898197,2.252177,0.254519,-196.496689,117.687683,-30.307295
88,385749555,28.661623,-52.108490,115.236168,-0.137500,3.229939,0.826346,-180.144241,110.940910,-39.720364
89,385766222,26.023754,-50.259670,115.299950,0.659168,3.234982,1.083986,-153.796448,98.600281,-48.844704
90,385782889,24.178196,-48.686062,115.072594,1.467544,3.403965,0.873309,-119.615906,80.698692,-48.114231
91,385799556,23.062431,-47.399818,114.673347,1.703735,3.987336,0.239804,-83.275948,63.247368,-45.639584
92,385816223,22.407127,-46.365269,114.260956,2.006351,4.427018,-0.214252,-55.894524,49.671673,-39.642750
93,385832890,22.069536,-45.619942,113.939522,2.292802,4.817105,-0.058354,-32.638966,35.281601,-29.396357
94,385849557,21.992407,-45.212856,113.711388,2.370404,5.671185,0.279993,-12.880486,18.002201,-18.150686
95,385866224,21.961527,-45.195477,113.746231,2.392250,6.631304,0.767222,1.132536,0.489465,0.876998
96,385882891,22.004271,-45.543140,114.012924,2.912394,8.401290,1.277618,15.459710,-16.157318,18.115908
97,385899558,22.213684,-46.201595,114.576790,2.996831,9.531173,1.307228,38.366619,-28.746576,36.555550
98,385916225,22.475794,-47.248886,115.865570,2.821030,10.412352,1.868811,73.551201,-38.965588,72.753304
99,385932892,22.714590,-48.613789,117.931976,1.946319,11.233559,2.809396,107.901855,-44.672283,107.969933
100,385949559,23.110186,-50.088326,120.464142,0.008633,10.312014,3.963943,140.551117,-43.927326,125.387917
101,385966226,23.699011,-51.504883,123.209251,-1.768405,8.509319,4.593777,164.507141,-37.604618,129.059052
102,385982893,24.436842,-52.753658,125.971176,-2.458078,6.408615,4.875628,176.635147,-27.876930,123.182243
103,385999560,25.301861,-53.787258,128.675354,-2.589135,5.368386,5.109865,183.490692,-16.407122,113.841911
104,386016227,26.448904,-54.570396,131.190750,-2.671165,4.172908,5.125917,192.753281,-4.678757,99.698219
105,386032894,28.044495,-55.135574,133.399490,-1.847556,2.930668,4.890304,205.652512,3.826874,83.061539
106,386049561,29.967287,-55.705898,135.042145,-1.368426,1.164292,5.094489,198.072617,-3.764299,65.215912
107,386066228,32.377102,-56.224678,136.015076,-3.489426,2.203023,4.611159,194.523560,-10.690451,43.764248
108,386082895,34.601410,-56.227123,136.504776,-5.983564,2.523355,3.808379,159.441833,7.921219,13.392458
109,386099562,35.210644,-55.389957,137.125732,-8.016314,0.731947,4.030884,68.933548,52.214977,-11.888224
110,386116229,34.382549,-53.777580,137.767822,-8.542024,0.649961,3.107265,-16.719881,91.247810,-37.186047
111,386132896,32.278545,-51.688465,138.581680,-7.204269,0.229198,2.282565,-85.797989,120.068825,-44.476383
112,386149563,29.602488,-49.049839,138.927414,-4.927438,-0.659532,0.845605,-142.993774,141.718521,-70.351631
113,386166230,27.167503,-46.017029,138.402710,-2.500239,-0.541503,-0.881413,-167.726303,149.138992,-105.504005
114,386182897,25.575018,-42.828407,136.936508,-0.539418,-1.533262,-2.149096,-155.542969,142.652420,-141.554291
115,386199564,24.823656,-39.535618,134.586960,2.502754,-4.571999,-5.061422,-136.346024,132.728317,-180.385300
116,386216231,24.826431,-36.095135,131.687057,7.400914,-11.231303,-7.027928,-104.978325,128.755142,-211.660599
117,386232898,25.968330,-32.749229,128.588623,12.080853,-17.462688,-5.444409,-35.083469,114.654907,-224.840332
118,386249565,27.939562,-30.075209,125.397232,13.418320,-25.689562,-3.861563,19.949261,67.976097,-218.563507
119,386266232,30.293562,-28.546047,122.706345,10.819763,-23.931683,-9.306180,63.684925,10.654490,-167.773727
120,386282899,32.299255,-28.612930,121.106659,8.140147,-16.740292,-12.959991,75.926750,-48.248737,-70.037392
121,386299566,33.606380,-30.142479,120.676834,8.843357,-10.885193,-11.766214,67.273064,-90.309113,30.991863
122,386316233,34.321846,-32.592285,121.193855,7.485069,-8.669133,-8.922917,60.576012,-108.219360,104.038147
123,386332900,34.934296,-35.355793,122.526245,5.260576,-5.513750,-8.310869,82.925186,-99.890045,148.741776
124,386349567,34.750000,-38.352425,124.495224,5.601809,-5.580147,-6.627966,61.319344,-94.686470,180.279800
125,386366234,33.867001,-41.372471,126.703835,4.752739,-5.919583,-6.414608,33.484798,-93.485786,186.135468
126,386382901,32.599239,-44.289623,128.972687,3.165112,-5.799122,-6.504718,18.012739,-92.845749,179.420700
127,386399568,31.064497,-47.004185,131.230774,2.035462,-6.714230,-6.092649,6.316995,-89.591599,166.376144
128,386416235,29.458187,-49.443508,133.189713,1.567047,-6.231824,-5.339664,-7.218418,-88.142448,141.414856
129,386432902,27.836687,-51.774441,134.696335,0.679549,-4.739610,-3.636071,-25.936348,-96.437607,117.433182
130,386449569,26.211945,-53.810734,135.662445,-0.402440,-4.829834,-2.260171,-49.836491,-94.128128,86.792130
131,386466236,25.076590,-55.364815,135.896027,-0.868870,-2.706670,-1.734222,-55.230217,-81.768471,47.736843
132,386482903,25.223011,-56.380745,134.993500,-0.694323,-0.154001,-0.983703,-34.581345,-69.312546,-1.531505
133,386499570,27.239328,-56.932522,132.714996,-0.876139,1.020839,0.834481,8.234512,-64.123093,-52.707310
134,386516237,31.018980,-56.843910,129.568237,-2.162039,0.054292,2.042263,70.091713,-46.770916,-92.612473
135,386532904,36.159077,-56.074062,126.046761,-3.817334,-1.938937,2.741549,133.741730,-27.320162,-122.724457
136,386549571,41.838196,-54.569416,122.157112,-4.856083,-3.382013,3.491393,150.244614,-14.605173,-159.900864
137,386566238,48.138130,-52.433239,117.632294,-3.849919,-2.323133,2.344460,161.113953,-24.720455,-204.669388
138,386582905,54.629410,-49.929733,112.849396,-6.001556,-2.877845,1.539425,167.209839,-48.005066,-229.456512
139,386599572,59.949898,-47.135914,108.372238,-8.787075,-4.121481,2.578155,119.278412,-60.252289,-236.975769
140,386616239,63.780048,-44.200687,104.312599,-9.164830,-2.086853,2.688451,56.954803,-68.180374,-235.369797
141,386632906,66.686256,-41.462162,100.421875,-6.919807,0.637773,3.756030,17.072475,-87.707413,-220.725510
142,386649573,68.455841,-39.052567,96.454208,-6.151796,3.154927,4.962758,-46.224739,-113.837715,-202.777664
143,386666240,69.075485,-37.027382,92.512016,-6.627734,6.004597,6.333527,-107.102699,-130.685760,-180.585342
144,386682907,68.800766,-35.281086,88.718834,-5.815304,8.542924,7.488329,-149.261047,-134.878830,-163.707840
145,386699574,68.109032,-33.946239,85.064636,-2.379766,11.068758,7.340534,-164.548676,-139.460098,-140.687195
146,386716241,67.371269,-33.107067,81.569305,2.312467,12.923530,6.399504,-158.600555,-143.752686,-112.789154
147,386732908,66.843597,-32.798054,78.551453,5.156531,14.258474,5.716290,-128.653305,-133.777802,-76.195396
148,386749575,66.631340,-33.150158,76.517662,5.102053,15.777340,6.011401,-77.648125,-103.402321,-21.074942
149,386766242,66.498650,-34.160187,75.854233,5.008426,16.116817,5.374101,-28.519941,-55.506149,42.332909
150,386782909,66.212273,-35.791523,76.763649,4.052784,15.618776,5.415294,15.599134,0.704308,107.463005
151,386799576,65.312096,-37.895378,79.242302,3.192860,13.491395,6.026980,36.682663,55.725597,163.778900
152,386816243,63.510315,-40.275223,83.049225,2.522779,11.237403,6.019496,37.456078,97.277252,205.113739
153,386832910,60.730450,-42.692123,87.965691,1.174566,9.529219,5.347033,30.214470,126.585266,231.206909
154,386849577,56.936596,-44.928528,93.948273,-0.325665,8.849216,4.677342,22.527092,151.268066,248.498047
155,386866244,52.117443,-46.787449,101.150520,-2.919361,7.554825,4.387951,22.699995,179.429169,265.046539
156,386882911,46.413952,-47.958828,109.367683,-3.931283,6.738245,3.548853,22.363798,206.158997,270.683075
157,386899578,40.369823,-48.297573,118.030167,-4.125368,5.777172,3.018396,26.217316,222.502808,265.646729
158,386916245,34.781448,-47.800240,126.366272,-4.488490,6.018284,1.903379,38.490562,226.435867,246.472702
159,386932912,30.013777,-46.662052,133.783173,-6.200693,3.911655,1.570248,42.376278,218.457474,218.293396
160,386949579,26.064259,-45.026165,139.872620,-8.379638,1.033140,0.838014,26.851547,205.200867,178.280472
161,386966246,22.632553,-43.080894,144.458908,-8.344325,-1.550707,-0.307231,-12.917246,186.854095,131.850357
162,386982913,19.564938,-40.982658,147.569885,-7.294850,-2.955117,-1.671000,-57.467014,166.399933,83.837723
163,386999580,16.679321,-38.831928,149.427277,-5.814782,-3.947419,-2.299750,-100.047958,148.305099,40.924843
164,387016247,13.641740,-36.702805,150.435547,-4.217838,-4.110059,-2.323168,-143.623627,134.898895,12.578135
165,387032914,10.262749,-34.711235,150.771011,-2.597283,-2.720526,-2.126655,-189.422119,119.388786,-8.917551
166,387049581,6.390264,-32.847752,150.442001,-1.676829,-1.694707,-1.252563,-241.759628,107.362358,-32.579159
167,387066248,2.357473,-31.069571,149.333557,-0.641734,-0.206578,-0.575509,-275.607513,101.183334,-64.552940
168,387082915,-0.969832,-29.711832,147.348907,0.951589,-1.037006,-1.000089,-258.320587,79.306099,-103.845665
169,387099582,-3.024977,-28.591564,144.599396,1.441145,-3.296122,-1.350766,-202.119461,71.268387,-141.781281
170,387116249,-3.713851,-27.529295,141.169785,2.767193,-3.993685,-1.351552,-136.598633,73.349930,-177.648087
171,387132916,-2.451503,-26.376575,137.362839,3.597036,-4.833160,-2.442663,-26.303753,79.042633,-199.698685
172,387149583,0.687784,-24.924925,133.570190,5.638194,-8.054699,-3.956378,91.287735,89.259262,-203.881989
173,387166250,5.380669,-23.410265,130.222580,7.756559,-12.281594,-5.808001,200.755203,80.066994,-187.942307
174,387182917,10.148645,-22.137402,127.497749,9.961702,-15.191122,-8.961651,224.228317,54.312252,-159.818298
175,387199584,14.703043,-21.678144,125.737579,9.648204,-15.102299,-11.971210,235.330643,4.816183,-101.746750
176,387216251,18.873537,-22.299004,125.243225,8.560621,-11.827092,-12.180316,240.611801,-44.643410,-15.680665
177,387232918,22.329762,-23.870953,126.063751,7.832693,-8.133759,-10.002206,228.152023,-73.401398,75.491051
178,387249585,24.948414,-25.910351,127.905609,7.265811,-6.203708,-6.743255,205.098740,-72.947304,140.819931
179,387266252,26.345440,-27.975315,130.387650,6.151886,-7.321844,-4.058424,152.775818,-55.268944,173.218552
180,387282919,26.615540,-29.992714,133.254929,5.360400,-7.411739,-4.084280,101.062065,-42.277378,188.580231
181,387299586,26.478088,-32.019650,136.128204,5.393579,-6.417727,-5.670129,82.054237,-43.794151,186.443649
182,387316253,26.440907,-33.877754,138.720276,3.976222,-6.458521,-6.052913,83.846771,-42.706017,166.425201
183,387332920,26.853264,-35.590221,140.885651,3.215734,-7.022962,-6.454445,100.246651,-45.005222,141.431503
184,387349587,28.021505,-37.191277,142.604401,2.361746,-9.400592,-6.641184,132.748779,-48.068920,117.870613
185,387366254,29.547123,-38.495697,143.940277,1.026639,-9.330725,-6.405874,142.177567,-39.182705,93.099091
186,387382921,30.364693,-39.465221,144.847702,1.444579,-5.839249,-4.323136,84.769974,-30.330667,65.657646
187,387399588,30.769743,-40.193111,145.660431,2.111455,-1.936434,-1.872350,57.002789,-19.621012,54.396877
188,387416255,31.051638,-40.614201,146.310379,1.933503,-0.137769,-1.167037,43.659550,-7.481830,38.398983
189,387432922,31.283701,-40.690224,146.308136,0.549187,-0.543920,0.349262,15.305235,-5.016149,2.211255
190,387449589,31.146603,-40.435036,145.727905,-2.973888,-4.018311,3.027095,-29.389952,-1.668435,-30.616491
191,387466256,31.013529,-39.735424,144.481781,-3.873814,-3.337067,5.397684,-54.656780,5.363829,-70.724274
192,387482923,31.549234,-38.622055,142.549942,-2.990579,0.662444,7.106298,-39.613491,9.379843,-111.535042
193,387499590,32.515198,-37.183411,139.824661,-1.669893,4.603592,7.266628,-41.031189,3.679990,-155.217224
194,387516257,33.691936,-35.672924,136.687500,-1.743443,5.323537,6.747623,-39.708736,-7.862559,-176.420715
195,387532924,34.745918,-34.104904,133.312897,-2.546539,5.256403,6.542267,-51.106930,-16.666739,-190.297958
196,387549591,35.612312,-32.494511,129.900909,-3.865543,4.588037,6.667755,-58.936829,-20.667269,-195.587265
197,387566258,35.950184,-30.890360,126.617897,-3.654449,4.017778,6.594673,-81.728676,-20.974438,-192.321594
198,387582925,35.871117,-29.417713,123.283730,-2.446479,4.944339,6.042520,-103.738358,-30.943712,-192.007339
199,387599592,35.593937,-28.195332,119.799706,-2.501717,4.623386,5.211010,-115.856377,-48.484161,-191.613098
200,387616259,35.202335,-27.273184,116.211693,-2.803150,4.604503,3.472189,-122.173286,-66.312576,-187.467346
201,387632926,34.625618,-26.676992,112.602104,-2.498748,4.027779,2.108946,-131.330231,-82.168381,-178.849670
202,387649593,34.159962,-26.429644,108.985710,-2.087379,3.255478,0.896105,-123.426590,-98.409660,-168.652725
203,387666260,34.087967,-26.538176,105.353531,-1.439203,1.999625,0.461920,-99.998825,-115.824203,-157.931290
204,387682927,34.581177,-26.903671,101.639702,-0.588472,1.386818,-0.210206,-69.106590,-131.369186,-152.095840
205,387699594,35.510719,-27.440933,97.868401,-0.869357,0.667461,-0.559546,-46.073021,-142.979324,-146.406662
206,387716261,36.700050,-28.021908,94.159203,-1.536485,1.099595,-1.102403,-30.716017,-145.235245,-138.724838
207,387732928,38.040279,-28.576622,90.659889,-1.530293,1.837002,-0.425866,-17.639729,-139.650238,-126.831024
208,387749595,39.577530,-29.004925,87.359268,-1.176310,2.268012,0.247132,-1.660090,-129.792206,-119.248421
209,387766262,41.178375,-29.364159,84.303322,-0.931516,2.203422,0.595856,8.125367,-121.118637,-108.095932
210,387782929,42.506161,-29.672760,81.528419,-0.703190,2.050331,1.063616,-0.874446,-111.439430,-95.697357
211,387799596,43.452755,-29.870890,79.045227,-0.140865,1.872632,1.851254,-15.691067,-97.861336,-86.624832
212,387816263,44.213364,-29.948265,76.807716,-0.317996,2.036925,2.439798,-19.806311,-84.940842,-80.843750
213,387832930,44.790470,-30.003252,74.838753,-1.015965,2.544254,2.737816,-22.899652,-75.082634,-70.791466
214,387849597,45.183300,-30.091661,73.210915,-0.808058,3.216385,2.286806,-23.833803,-64.516914,-56.161648
215,387866264,45.584278,-30.249180,71.994858,0.196034,3.396034,1.417854,-11.112508,-52.537563,-37.694717
216,387882931,46.358448,-30.524857,71.177841,1.392161,3.601940,0.469770,23.152760,-42.895760,-17.617285
217,387899598,47.343079,-30.962393,70.855370,1.366765,3.890549,0.432504,50.685596,-31.080919,7.659184
218,387916265,48.327065,-31.545765,71.113937,0.820548,3.948259,0.690341,68.587120,-14.659245,34.722946
219,387932932,49.084991,-32.245502,71.952133,0.662451,3.770106,0.859558,73.548027,3.383167,59.596127
220,387949599,49.510029,-33.025723,73.274536,1.064480,3.403418,0.881768,69.789520,19.134413,78.933395
221,387966266,49.548328,-33.820755,74.925110,0.934686,3.285141,1.043237,58.350170,30.931721,89.804993
222,387982933,49.132812,-34.596458,76.864326,0.056595,3.287145,1.398078,41.985981,41.680527,97.865967
223,387999600,48.223495,-35.319916,79.057732,-0.667309,3.437285,1.340449,22.355120,51.354645,103.677811
224,388016267,46.875648,-35.964722,81.459839,-0.750338,3.782615,0.882016,4.628685,59.325680,107.460869
225,388032934,45.286560,-36.495708,84.048302,-0.458788,4.188138,0.236529,-2.040094,67.155556,109.704529
226,388049601,43.726337,-36.907654,86.798950,-0.440978,4.683877,-0.110641,6.538459,74.143066,111.551277
227,388066268,42.376087,-37.240864,89.702652,-0.953956,5.002456,0.067697,25.531034,79.297272,115.079689
228,388082935,41.325771,-37.545933,92.784912,-1.495155,5.066782,0.267038,50.802578,83.411552,121.510925
229,388099602,40.421768,-37.858330,96.056618,-1.803150,4.825665,0.482432,67.325241,86.483704,129.560776
230,388116269,39.575298,-38.172337,99.489075,-2.186350,4.356497,0.563557,77.564163,88.878242,136.257812
231,388132936,38.741653,-38.504723,103.066902,-3.209595,3.778915,1.189893,84.658867,89.881630,143.002426
232,388149603,37.714462,-38.839268,106.756607,-4.050260,3.385824,1.889042,78.224861,90.208763,148.044907
233,388166270,36.415737,-39.136002,110.434120,-3.931801,2.881300,2.208190,62.423935,88.187225,147.432312
234,388182937,34.861641,-39.337982,114.013542,-3.560265,2.106338,2.431155,44.128010,86.097176,142.098282
235,388199604,32.991268,-39.378304,117.444725,-2.985158,1.278819,2.583032,19.864338,85.853920,133.279343
236,388216271,31.070650,-39.284035,120.655525,-2.800107,-0.106102,2.895086,8.394172,82.847549,123.181496
237,388232938,29.083712,-39.068886,123.527855,-3.282643,-1.128608,2.672184,-8.819367,77.145142,108.999222
238,388249605,27.209986,-38.790810,126.073151,-3.623370,-2.416252,1.950703,-14.936410,69.775291,96.744972
239,388266272,25.279463,-38.415977,128.324646,-2.822715,-2.280193,0.913030,-30.024054,65.875137,84.608490
240,388282939,23.677849,-38.006027,130.360550,-1.416724,-2.353844,0.343231,-19.019972,61.177444,77.031250
241,388299606,22.253653,-37.553322,132.257919,-1.022752,-2.653061,0.429735,-14.194543,59.135983,72.118820
242,388316273,21.189405,-36.990021,134.060959,-1.349623,-2.755097,-0.005035,3.174232,62.277878,67.340935
243,388332940,20.023119,-36.137314,135.825256,-1.429659,-1.946437,-0.823938,-5.401058,76.829391,61.455269
244,388349607,18.923515,-34.943012,137.673172,-0.534924,-1.401525,-0.818131,-0.012564,96.647987,61.049442
245,388366274,18.248714,-33.471630,139.460434,0.397264,-1.378860,-0.547977,21.312923,110.956146,55.802521
246,388382941,18.267942,-31.810835,140.990677,0.726376,-2.432610,-0.489625,52.184410,117.863914,42.084259
247,388399608,18.766651,-30.029980,142.161545,0.833832,-3.847178,-0.450962,67.526970,119.473518,23.094620
248,388416275,19.162601,-28.264996,142.970901,1.229302,-3.916131,-0.663628,48.912380,112.945618,5.576190
249,388432942,19.317757,-26.607080,143.348358,2.006501,-3.003794,-0.549314,21.248796,99.551987,-13.921840
250,388449609,19.141527,-25.137945,143.251541,2.229339,-1.796089,-0.411120,-11.603462,80.516357,-34.084961
251,388466276,18.510191,-23.793425,142.620438,1.569068,-2.097940,-0.123165,-52.055637,64.239517,-58.772003
252,388482943,17.392902,-22.499573,141.526703,1.251514,-2.436170,-0.309418,-91.325371,54.256378,-81.451218
253,388499610,16.052477,-21.263016,139.962128,1.814431,-1.860117,-0.725369,-113.900360,44.990433,-104.895172
254,388516277,14.873011,-20.085560,138.112915,1.871296,-1.865725,-1.732301,-108.429207,39.410393,-119.006378
255,388532944,14.172142,-18.862123,136.101517,2.220909,-2.607642,-1.867857,-80.776192,41.521999,-128.667496
256,388549611,14.156792,-17.643726,134.044601,3.024450,-2.278643,-2.247160,-38.075321,41.188774,-131.645309
257,388566278,14.893890,-16.476889,132.046967,3.089999,-3.230501,-2.712820,10.557158,38.021038,-128.593948
258,388582945,16.149025,-15.415344,130.174179,2.933052,-3.970281,-3.237064,45.928577,31.443893,-121.263260
259,388599612,17.838665,-14.572342,128.545776,2.749284,-4.283985,-3.896180,77.593002,19.774408,-105.156395
260,388616279,19.793882,-14.003210,127.317215,2.419647,-4.421528,-4.141882,100.614777,8.268443,-78.746506
261,388632946,21.938240,-13.833581,126.615166,2.469736,-3.916368,-4.306751,120.026161,-6.068276,-41.946259
262,388649613,24.123119,-14.116179,126.570183,2.633392,-3.331356,-4.491588,131.939117,-17.648165,4.107004
263,388666280,26.156702,-14.831656,127.208107,3.648406,-2.645024,-4.781551,133.076675,-24.137512,51.676304
264,388682947,27.985672,-15.934875,128.393677,4.360384,-2.297982,-4.754851,130.100372,-28.748274,91.086563
265,388699614,29.734608,-17.424236,129.912720,4.182764,-2.958704,-4.167843,132.583755,-37.141872,119.487129
266,388716281,31.433296,-19.245775,131.601837,3.289711,-3.993202,-4.042775,135.287231,-46.158432,138.321442
267,388732948,33.139858,-21.299833,133.367020,3.314817,-4.791387,-3.911976,140.571503,-52.140141,149.714432
268,388749615,34.849689,-23.479893,135.047150,4.234390,-4.783708,-3.395613,142.469543,-57.354042,150.312286
269,388766282,36.562611,-25.714899,136.482971,3.898596,-5.230509,-2.684852,140.114914,-64.201340,141.773102
270,388782949,38.493931,-27.984848,137.764053,3.779577,-5.353330,-1.811103,152.071518,-67.265068,137.257095
271,388799616,40.336189,-30.315054,138.801575,4.341049,-3.567493,-1.370295,142.334366,-74.528275,130.681686
272,388816283,41.812012,-32.643734,139.554657,4.716838,-2.433645,-0.789085,113.625381,-81.045616,120.758965
273,388832950,43.188309,-34.843090,140.070358,4.378763,-2.478274,-1.549953,101.248215,-80.946129,108.029236
274,388849617,44.313934,-36.726425,140.404007,3.510386,-1.797682,-1.614424,80.728020,-71.434181,89.781677
275,388866284,45.112362,-38.269753,140.528519,2.561986,-2.021511,-1.086622,53.943462,-62.673531,69.270599
276,388882951,45.511730,-39.458393,140.489746,1.883673,-1.509285,0.319622,23.993227,-52.482113,49.338741
277,388899618,45.685860,-40.373852,140.179230,1.269325,-1.614734,0.725469,-0.014958,-49.680443,29.155886
278,388916285,45.777515,-40.904518,139.682877,0.168464,-2.229563,0.842890,-12.403488,-39.447189,6.936237
279,388932952,45.525532,-40.922199,138.996994,-0.393640,-2.485782,-0.016998,-40.575550,-24.019791,-21.068577
280,388949619,45.152962,-40.568470,138.152695,0.435937,-1.829708,0.097957,-53.925224,-13.421524,-42.160141
281,388966286,44.970745,-40.052692,136.960754,0.511205,-1.628228,0.357264,-55.704475,-17.785862,-60.512367
282,388982953,45.391983,-39.502514,135.121750,-0.887795,-2.380464,1.388639,-43.829987,-37.927544,-83.272873
283,388999620,46.377769,-38.768398,132.585861,-3.819269,-3.040418,1.553995,-35.399067,-55.113506,-113.854576
284,389016287,47.529785,-37.750214,129.615570,-5.202510,-3.211205,1.265509,-39.751980,-61.613914,-140.236557
285,389032954,48.779194,-36.362587,126.426926,-3.971619,-1.029255,0.686450,-38.849445,-59.245846,-163.942764
286,389049621,50.510181,-34.727448,123.068810,-2.601669,0.999783,1.139578,-11.811125,-62.455265,-180.974854
287,389066288,52.753685,-32.905212,119.613457,-2.632454,1.720682,2.022936,20.680422,-68.238846,-192.691788
288,389082955,54.999916,-30.877308,116.205681,-3.207588,1.661247,2.844748,28.202101,-69.553253,-200.680023
289,389099622,56.821552,-28.778702,112.993805,-3.282904,2.006008,2.759771,14.901898,-68.930786,-198.040741
290,389116289,58.184704,-26.776131,110.007988,-2.642712,2.468300,2.060666,-0.226845,-70.174385,-186.561523
291,389132956,59.326191,-24.972466,107.227959,-2.384017,2.452305,1.601513,-2.823694,-73.217392,-170.442093
292,389149623,60.078972,-23.413589,104.634323,-2.881805,1.534863,2.303463,-17.115854,-76.406219,-152.449646
293,389166290,60.284481,-22.135746,102.180130,-3.034122,0.937498,2.816119,-43.172359,-80.695923,-134.117493
294,389182957,60.234341,-21.107780,99.734520,-2.739793,0.946791,2.575365,-55.575905,-88.867409,-121.312820
295,389199624,60.097919,-20.414999,97.226097,-1.747229,1.295784,1.474508,-60.033287,-102.420906,-106.163254
296,389216291,59.791122,-19.976267,94.696465,-1.884598,1.735110,1.108005,-69.302864,-111.125916,-94.223381
297,389232958,59.115925,-19.781353,92.315605,-2.743844,2.558795,0.951833,-87.578041,-110.766151,-78.448578
298,389249625,57.948910,-19.720411,90.285889,-2.560030,3.642605,1.567075,-109.664864,-96.865250,-63.054886
299,389266292,56.656082,-19.873798,88.560005,-0.479500,4.612456,1.456252,-111.137238,-87.977074,-44.997269
300,389282959,55.459221,-20.197659,87.053345,0.871291,5.175416,2.006971,-101.275864,-82.311455,-31.407682
301,389299626,54.279736,-20.593178,85.791550,0.622728,5.354055,2.678458,-95.648003,-72.697891,-21.538887
302,389316293,52.866768,-21.078890,84.880531,0.279983,5.024914,2.900169,-102.715347,-59.414989,-7.002168
303,389332960,51.254238,-21.650269,84.354828,0.364576,5.013856,2.278296,-106.738022,-45.247227,8.859744
304,389349627,49.687923,-22.313200,84.245934,0.855666,5.162771,1.505854,-94.920319,-30.989201,26.702955
305,389366294,48.285011,-23.070339,84.588974,0.923876,5.475518,0.962979,-74.730492,-16.480190,46.616913
306,389382961,47.021633,-23.895260,85.412010,0.733204,5.611708,0.715178,-54.618740,-0.859943,66.964867
307,389399628,45.885769,-24.813042,86.735748,0.415738,5.533432,0.694798,-33.890362,13.516838,89.631927
308,389416295,44.789314,-25.768015,88.499329,-0.255015,5.246154,0.997585,-19.070314,26.786007,107.871719
309,389432962,43.666058,-26.755253,90.673882,-1.036251,4.983588,1.054356,-8.150121,38.184177,125.021027
310,389449629,42.377380,-27.739977,93.101219,-1.133720,4.642591,0.830839,-9.124483,44.164150,134.828629
311,389466296,40.943558,-28.721615,95.639374,-0.642018,4.333605,0.701540,-12.471704,44.208492,139.247375
312,389482963,39.486347,-29.687073,98.206299,-0.468227,4.227125,1.024204,-10.762180,41.592091,139.917465
313,389499630,38.017796,-30.589924,100.768486,-0.696553,3.949689,1.582026,-9.402016,40.001007,137.445831
314,389516297,36.503464,-31.404970,103.439125,-1.205781,3.602475,1.865967,-6.811898,43.267048,138.779877
315,389532964,34.880650,-32.083828,106.310608,-1.071058,3.373231,1.613001,-5.194484,51.429062,142.610657
316,389549631,33.202278,-32.563148,109.404526,-0.531344,3.560721,0.971032,0.087802,63.010990,145.937057
317,389566298,31.646559,-32.819305,112.610504,-0.130147,3.544564,0.574123,12.084306,72.853951,144.742249
318,389582965,30.318937,-32.836330,115.757622,-1.456702,2.522883,0.744972,24.240936,79.827423,136.412949
319,389599632,28.884632,-32.578079,118.810333,-3.941846,0.734060,0.906093,14.444192,88.620705,126.207542
320,389616299,27.345083,-32.094788,121.710144,-3.978442,-0.484885,0.811625,2.225105,93.867767,115.856415
321,389632966,25.854420,-31.461498,124.295990,-2.508415,0.165451,0.422852,-6.202242,92.049385,100.783646
322,389649633,24.425888,-30.796066,126.591919,-1.534761,0.943284,0.192707,-12.970518,85.259293,89.654221
323,389666300,23.047058,-30.069973,128.602692,-1.999276,0.668206,0.191491,-20.092400,80.775017,77.555000
324,389682967,21.771757,-29.242912,130.391129,-2.758946,-0.181722,0.379662,-21.898245,80.447792,67.160004
325,389699634,20.721004,-28.324747,131.987198,-2.563036,-1.108201,1.029017,-15.411469,80.784035,58.134922
326,389716301,19.730474,-27.310818,133.349930,-1.771016,-0.615926,1.410716,-19.755159,81.109375,46.695686
327,389732968,18.933575,-26.309225,134.482941,-0.915449,0.381480,1.514373,-15.632951,75.816902,37.231510
328,389749635,18.568928,-25.386185,135.500183,-1.380113,0.882987,1.252009,6.248381,69.125771,34.083645
329,389766302,18.588730,-24.450216,136.400986,-2.054305,-0.128146,1.078086,25.475813,67.873947,28.443815
330,389782969,19.077173,-23.561224,137.149704,-2.265831,-1.782374,0.999867,49.096611,62.759357,21.496468
331,389799636,19.766079,-22.761616,137.703049,-1.777775,-1.581632,0.544330,55.904530,54.424046,12.709831
332,389816303,20.633352,-22.112600,138.063202,-0.864788,-1.490881,0.501442,61.793835,42.470108,5.174106
333,389832970,21.412613,-21.619492,138.204849,-0.590170,-0.846822,0.224994,51.429199,29.472878,-3.375360
334,389849637,22.388489,-21.326586,138.090683,-0.999574,-1.844702,-0.838377,57.554302,12.955358,-12.593157
335,389866304,23.747906,-21.250505,137.752563,-1.165000,-2.942988,-1.339641,75.706947,-4.180671,-19.302811
336,389882971,25.303328,-21.254890,137.155060,-0.762970,-3.802853,-0.196569,81.833656,-15.084041,-30.411118
337,389899638,26.986509,-21.280079,136.264816,0.475244,-3.162830,0.186540,83.116013,-24.267929,-44.139946
338,389916305,28.736147,-21.288467,135.076630,0.601776,-2.025021,-1.079360,80.595711,-32.468441,-58.614792
339,389932972,29.951981,-21.131680,133.493546,1.523397,-3.284183,-1.198195,40.081291,-36.176334,-81.919693
340,389949639,30.715611,-20.776680,131.388901,2.366969,-3.667078,-1.793305,2.150469,-42.160526,-112.657822
341,389966306,31.257036,-20.228651,128.949081,1.313120,-3.816158,-3.016865,-17.293842,-43.393833,-134.590530
342,389982973,31.624289,-19.440363,126.339981,0.968033,-4.889957,-3.104109,-29.588964,-37.458122,-150.420746
343,389999640,32.047436,-18.536993,123.765327,1.804648,-6.249816,-3.189091,-23.385651,-32.007168,-152.797974
344,390016307,33.377537,-17.661858,121.512932,2.069722,-5.434118,-4.387067,39.301182,-26.247112,-136.568634
345,390032974,35.338444,-16.880999,119.888969,2.053052,-4.043089,-4.749968,90.205528,-14.841327,-103.363396
346,390049641,37.301083,-16.346191,119.051514,3.271087,-2.924100,-3.894058,104.878700,-3.671984,-57.911469
347,390066308,39.726128,-16.390211,118.885239,5.197440,-1.233373,-4.772521,144.180038,-9.038119,-5.955263
348,390082975,42.609417,-17.141401,119.250938,4.474060,-0.531419,-5.715305,180.816208,-21.113487,45.380840
349,390099642,45.427120,-18.409353,120.062202,3.336124,-0.793158,-5.796990,185.406586,-23.516161,86.095551
350,390116309,47.871746,-20.044020,121.174759,2.412703,-1.768659,-4.646201,170.143127,-22.508743,114.487816
351,390132976,49.566124,-22.076832,122.523636,1.457523,-3.880645,-2.495358,132.229858,-24.722456,141.385422
352,390149643,50.314289,-24.377699,124.078476,1.352398,-6.286083,-0.511483,83.172043,-24.243874,160.727432
353,390166310,50.227253,-26.822241,125.783661,2.265765,-6.594995,-0.691789,40.485489,-23.795471,171.666611
354,390182977,49.606560,-29.284792,127.596283,4.207766,-6.019736,-1.119268,15.411791,-22.711761,174.742676
355,390199644,48.685593,-31.703758,129.397064,5.654002,-4.768327,-1.458415,1.078056,-25.532829,170.577133
356,390216311,47.649845,-34.137985,131.076752,5.282456,-3.807895,-0.942312,-5.865719,-35.395992,165.148697
357,390232978,46.544910,-36.577530,132.517044,3.943297,-3.987890,-0.757165,-14.781442,-49.042465,155.103134
358,390249645,45.510796,-39.086090,133.719284,3.027829,-6.158897,-1.303660,-16.300394,-64.531631,147.787491
359,390266312,44.173920,-41.674740,134.628372,2.778163,-6.927357,-1.793906,-43.368328,-81.863045,138.901306
360,390282979,42.462421,-44.362305,135.239304,2.476753,-6.104944,-0.423221,-76.173935,-99.975082,130.048645
361,390299646,40.687267,-47.107746,135.789871,0.855972,-4.195460,1.433006,-81.346634,-108.974747,126.487030
362,390316313,38.860683,-49.597626,136.602386,-0.569933,-3.089390,2.070386,-71.664398,-95.136932,120.401138
363,390332980,36.930477,-51.604073,137.568924,-0.610061,-1.772212,0.815804,-69.504044,-73.434288,102.917793
364,390349647,35.329544,-53.242741,138.332626,0.054929,-0.232833,-0.551339,-58.254501,-63.981655,80.467537
365,390366314,34.323402,-54.694405,138.701096,1.046020,0.463796,-0.257406,-41.008308,-65.117813,60.342545
366,390382981,34.223770,-56.052460,138.649734,0.185095,1.359956,0.194579,-7.034377,-69.366142,44.364891
367,390399648,34.889286,-57.160633,138.304413,-1.702848,0.087599,0.869903,24.110275,-62.273327,28.247572
368,390416315,35.791039,-57.732010,137.820770,-3.264070,-1.054009,0.591666,31.125481,-38.037697,7.018164
369,390432982,36.685242,-57.723785,137.204849,-2.152553,-0.955530,0.058887,23.885134,-12.306279,-16.280191
370,390449649,37.469276,-57.223396,136.191727,-0.210841,0.647064,0.105894,-2.733240,3.208506,-44.248207
371,390466316,38.478401,-56.387512,134.577148,0.489161,1.386517,-0.478706,-19.039581,5.860092,-72.736778
372,390482983,39.828072,-55.173466,132.357132,-0.256902,0.943024,-0.225659,-27.686674,8.143168,-104.145645
373,390499650,41.115059,-53.477352,129.857956,-1.238124,0.544383,-0.195124,-43.121918,19.600895,-132.639359
374,390516317,42.268116,-51.387493,127.387390,-1.998881,0.444541,0.645199,-46.844337,32.463238,-150.948669
375,390532984,42.950359,-48.998779,125.089478,-1.696754,0.057442,1.947077,-63.508602,44.668507,-162.056458
376,390549651,43.154144,-46.393341,122.752052,-1.881647,0.558058,2.496168,-90.020409,48.731380,-175.763443
377,390566318,43.011749,-43.684650,120.348099,-2.519707,0.904033,2.298576,-109.119560,48.020409,-185.521652
378,390582985,42.851650,-40.943535,117.879570,-3.177425,0.971688,1.319572,-107.830811,44.753681,-192.284790
379,390599652,42.973206,-38.226841,115.404297,-3.343360,1.659624,0.325490,-85.864815,40.386692,-194.885300
380,390616319,43.362919,-35.602554,112.946121,-2.021121,2.141808,0.215993,-63.727982,33.106472,-193.803116
381,390632986,43.835224,-33.178902,110.473106,-0.889059,3.176039,-0.146394,-53.994949,19.816332,-189.028473
382,390649653,44.617035,-31.064646,107.975845,-0.987302,3.205933,0.118122,-31.285948,1.341257,-179.492462
383,390666320,45.643471,-29.285677,105.545959,-1.972196,2.986579,0.554069,-10.216037,-15.061852,-164.646194
384,390682987,46.761307,-27.837563,103.289062,-2.892096,3.167995,0.967657,3.812621,-26.742313,-145.114624
385,390699654,47.836994,-26.686884,101.222305,-3.031092,3.207384,1.508004,9.222376,-35.214825,-125.584038
386,390716321,48.923470,-25.817446,99.326935,-2.118015,3.622684,1.610140,16.374866,-42.616024,-106.831902
387,390732988,49.965874,-25.180353,97.544228,-0.976576,3.715481,1.667715,17.983881,-49.513073,-91.910759
388,390749655,50.900417,-24.727335,95.837616,0.395647,3.911598,1.357583,14.362535,-55.262756,-80.188316
389,390766322,51.832836,-24.430252,94.242592,0.809713,4.187695,1.168331,17.628948,-57.861847,-68.364113
390,390782989,52.697861,-24.287867,92.853203,0.613942,4.174005,1.411234,19.013430,-55.833549,-53.341587
391,390799656,53.480339,-24.278749,91.716438,0.365908,4.556646,1.563820,20.395329,-50.382687,-37.887581
392,390816323,54.136757,-24.394287,90.906677,0.201496,4.696477,1.745475,20.860466,-40.817528,-20.661808
393,390832990,54.683865,-24.612249,90.443275,0.847211,4.829935,1.322655,22.794739,-29.178207,-4.209634
394,390849657,55.133224,-24.939129,90.293045,1.361350,4.858961,0.917022,24.682894,-18.964945,11.216785
395,390866324,55.589447,-25.379065,90.456001,1.129359,4.778784,1.025461,33.032490,-8.711116,26.617117
396,390882991,55.852077,-25.902691,90.962250,0.304523,4.564778,1.485644,30.405882,3.947331,41.249924
397,390899658,55.741219,-26.499981,91.861801,-0.190699,4.218904,1.787375,18.685163,18.922892,56.721058
398,390916325,55.302765,-27.170511,93.104027,0.012351,3.955771,1.670532,8.845566,31.068624,70.667084
399,390932992,54.728184,-27.937483,94.642700,-0.107447,3.809492,1.409787,9.741421,39.697262,84.481102
400,390949659,54.043350,-28.827076,96.460358,-0.428458,3.797758,1.311079,12.265528,45.950077,99.111603
401,390966326,53.218655,-29.816833,98.527161,-1.098142,3.718596,1.374592,12.763795,50.876926,111.771049
402,390982993,52.323189,-30.925322,100.834641,-1.686958,3.832697,1.171170,17.792015,53.905945,125.056900
403,390999660,51.396042,-32.133892,103.351959,-2.414028,3.734102,1.176680,24.881189,55.513813,136.370575
404,391016327,50.388248,-33.423706,106.058342,-2.949927,3.282228,1.364670,28.974497,56.171627,145.992249
405,391032994,49.271080,-34.768047,108.929527,-3.293660,2.420382,1.546750,31.071997,56.030594,153.476120
406,391049661,48.057281,-36.140778,111.934273,-3.067295,1.559626,1.530565,33.284088,54.928143,158.651779
407,391066328,46.722038,-37.497124,114.994415,-2.577436,0.738624,1.646930,31.457659,52.144749,159.217224
408,391082995,45.282936,-38.748802,118.022720,-2.225869,0.394250,1.525754,27.363956,49.721951,153.129745
409,391099662,43.698563,-39.833096,120.951630,-1.917848,0.010738,1.340472,17.763605,47.965233,142.431122
410,391116329,41.956150,-40.742264,123.737961,-1.702800,-0.547396,0.975584,5.098379,45.744877,130.432205
411,391132996,40.178612,-41.560246,126.378059,-1.444718,-1.348633,0.643058,-0.875749,40.414455,121.993317
412,391149663,38.233891,-42.305874,128.841751,-1.010893,-1.514298,0.334774,-16.360319,33.907047,113.320122
413,391166330,36.267467,-42.964672,131.100784,-0.864275,-1.122599,-0.051619,-24.641983,27.951441,103.132286
414,391182997,34.303097,-43.465816,133.181152,-0.834046,-0.555809,-0.332662,-30.855019,27.060869,91.462875
415,391199664,32.478245,-43.772709,135.138916,-0.827192,-0.064881,-0.548358,-26.920675,30.483101,80.975990
416,391216331,30.995111,-43.887459,137.009430,-0.819639,-0.393157,-0.485634,-9.732527,35.787437,72.320709
417,391232998,29.819534,-43.764286,138.717606,-0.592320,-1.066595,-0.324987,1.968700,42.852612,59.873638
418,391249665,28.737461,-43.349697,140.240891,-0.862178,-1.183923,-0.212420,-0.410028,53.145290,45.455639
419,391266332,27.711964,-42.602802,141.546295,-0.556958,-0.914432,-0.087539,-6.603292,65.640663,29.147972
420,391282999,26.716471,-41.538280,142.557663,-0.278937,-0.102751,-0.161408,-17.537363,76.454422,10.701394
421,391299666,25.866112,-40.211678,143.333069,-0.191570,0.060789,0.015478,-19.041185,85.999176,-3.862271
422,391316333,24.916279,-38.644981,143.923172,-0.219276,-0.195807,0.286082,-32.965786,95.704887,-15.745350
423,391333000,24.019962,-36.968304,144.354874,0.343723,-1.245748,0.679887,-36.365044,99.098648,-23.182377
424,391349667,23.706352,-35.354244,144.522781,0.974652,-1.953835,0.808760,-11.340180,90.912277,-31.880888
425,391366334,23.918921,-33.920181,144.504333,1.409663,-2.620657,1.107425,13.652010,77.404037,-35.712009
426,391383001,24.166332,-32.677116,144.258453,1.081358,-2.182958,0.887947,8.270191,62.140678,-41.784458
427,391399668,24.675385,-31.706093,143.866714,1.072373,-1.948412,0.702663,19.542599,43.873135,-42.335896
428,391416335,25.792696,-31.034901,143.349319,0.612040,-2.232916,0.603254,52.398434,24.174417,-41.279045
429,391433002,27.327188,-30.654247,142.732605,0.074965,-2.495678,1.074965,74.612968,5.266799,-38.762615
430,391449669,28.901249,-30.414686,141.960541,-0.197328,-2.627108,1.410226,72.421638,-7.082061,-42.098160
431,391466336,30.140699,-30.269545,141.074097,-0.047781,-2.281063,1.352463,49.006866,-15.999901,-44.365002
432,391483003,31.094994,-30.129358,140.066513,0.123226,-1.445636,0.786614,28.353966,-20.333057,-49.378555
433,391499670,31.817139,-29.924473,138.977295,-0.131284,-0.751017,0.664917,12.130241,-20.001575,-54.808689
434,391516337,32.270554,-29.589565,137.871338,-0.452147,-0.786370,0.640441,-4.227036,-14.493894,-59.618496
435,391533004,32.442238,-29.097343,136.738876,-0.007737,-0.775575,0.083185,-21.495825,-7.715637,-65.965897
436,391549671,32.643990,-28.416496,135.503738,0.640220,-0.948508,-0.677228,-22.047894,-1.476029,-76.867569
437,391566338,32.876328,-27.636786,134.210205,0.980880,-1.389218,-1.811027,-21.031246,1.301024,-83.052803
438,391583005,33.180790,-26.736160,132.848770,1.680118,-2.607656,-3.014809,-17.557751,4.730737,-90.494125
439,391599672,33.669266,-25.882055,131.514664,2.456947,-3.867639,-4.367175,-4.676713,2.270353,-88.235260
440,391616339,34.471199,-25.282715,130.395248,2.659446,-5.037518,-4.998153,20.603151,-5.130757,-70.443459
441,391633006,35.444626,-25.086954,129.718018,2.765278,-5.163020,-5.284410,42.601871,-12.432040,-36.981525
442,391649673,36.451290,-25.468460,129.620468,3.585358,-4.266383,-4.978264,59.385128,-22.634834,9.042585
443,391666340,37.307976,-26.440094,130.132538,3.869746,-3.567904,-4.948308,66.329445,-31.058325,56.977665
444,391683007,37.710957,-27.867176,131.308090,3.551548,-4.096197,-4.963560,57.851902,-30.717680,101.817291
445,391699674,37.337193,-29.580299,133.224625,3.243972,-5.467497,-4.714814,34.326401,-21.109005,142.479126
446,391716341,35.762016,-31.433737,135.808884,3.828358,-6.851974,-3.933550,-14.296056,-10.792131,173.438339
447,391733008,33.238956,-33.411324,138.951843,4.865535,-8.163489,-4.189147,-48.755112,-8.634493,198.286896
448,391749675,30.185879,-35.572441,142.570618,5.245903,-8.138924,-5.024233,-58.693108,-17.246260,220.293732
449,391766342,26.890541,-37.848907,146.433121,4.535737,-7.331599,-5.859903,-57.648518,-32.243904,228.364380
450,391783009,23.350620,-40.078037,150.354706,3.045044,-6.267314,-4.981328,-62.906410,-44.446205,222.334198
451,391799676,19.690016,-42.119923,154.117996,1.627515,-4.218989,-4.080882,-69.698486,-52.584839,203.153244
452,391816343,16.105446,-43.944870,157.636139,0.632511,-2.315188,-2.388347,-69.542549,-57.820099,180.409180
453,391833010,13.193660,-45.578754,160.814362,0.365827,-0.967445,-1.692141,-38.971035,-61.650715,155.725967
454,391849677,10.960717,-47.055679,163.570328,0.169014,-0.783725,-0.926838,-12.958251,-63.814999,130.159897
455,391866344,9.382747,-48.277313,165.734741,-0.349087,-0.203471,-0.069921,2.743932,-57.763462,98.973389
456,391883011,8.087813,-49.238377,167.249115,0.064800,0.951149,0.133579,-7.959126,-48.963413,67.913498
457,391899678,7.300311,-50.004852,167.974548,0.259448,1.876738,0.096684,-12.678427,-42.866837,34.052650
458,391916345,7.333163,-50.581150,167.758636,-0.122250,1.140515,0.644831,-6.576707,-36.417633,-3.854487
459,391933012,8.112438,-50.880421,166.782669,-0.130269,0.929777,1.706562,2.843111,-23.841303,-34.366253
460,391949679,9.662955,-50.871197,164.911346,-0.100200,2.448266,2.229699,7.349319,-11.465054,-70.133362
461,391966346,11.890447,-50.531155,162.456848,-0.193171,2.383095,2.198360,21.107914,1.531108,-95.495720
462,391983013,14.645610,-49.693073,159.497910,0.134135,2.995131,2.333949,30.503960,21.732229,-122.403534
463,391999680,17.805603,-48.523830,156.262238,0.784363,3.787498,2.168501,44.254311,30.761097,-141.681702
464,392016347,21.041260,-47.013428,152.753128,1.228411,3.436888,2.708342,39.656315,37.309483,-163.646973
465,392033014,23.872276,-45.189465,149.234543,0.191933,0.975817,3.208903,19.154472,44.114632,-177.140594
466,392049681,25.816526,-43.122131,145.755386,-0.106936,0.316032,3.566548,-27.331202,48.524246,-188.079208
467,392066348,27.109028,-40.864746,142.160614,0.698375,0.960779,3.274599,-65.312485,48.701744,-203.921295
468,392083015,27.856359,-38.566498,138.371552,0.493360,-0.072977,3.123174,-98.969307,40.509182,-218.841415
469,392099682,27.997789,-36.278076,134.522461,-1.154052,-1.594156,2.898650,-130.380356,34.293072,-226.431473
470,392116349,27.523951,-34.104263,130.709747,-2.099313,-1.752632,1.959418,-158.776291,27.219252,-226.270798
471,392133016,26.714684,-32.123402,127.052597,-2.299729,-1.673415,1.529999,-166.928909,20.897442,-217.853516
472,392149683,26.062782,-30.398157,123.564476,-2.642929,-1.161763,1.235158,-146.222198,12.116296,-206.361694
473,392166350,25.847574,-29.010847,120.261765,-3.534486,-1.018832,1.435304,-109.615814,-1.575259,-191.282196
474,392183017,26.133236,-27.976553,117.104088,-4.088419,-0.686912,1.388642,-71.761528,-18.261522,-176.952118
475,392199684,26.862490,-27.331825,114.115631,-4.411771,-0.207329,1.151831,-37.990005,-37.302811,-159.485336
476,392216351,27.958027,-27.049507,111.336227,-4.661295,0.397157,0.877021,-8.998314,-54.299267,-139.567520
477,392233018,29.276985,-27.071356,108.760834,-4.557436,1.351116,0.229671,10.309188,-68.100143,-120.256699
478,392249685,30.551443,-27.315233,106.416229,-3.978385,1.923010,0.088050,13.647528,-76.116287,-101.247398
479,392266352,31.707466,-27.694328,104.281479,-3.003991,2.464063,0.296926,11.679003,-79.226967,-85.578766
480,392283019,32.720673,-28.140060,102.361137,-2.259944,2.972932,0.516165,8.319536,-77.918686,-71.970474
481,392299686,33.576881,-28.567225,100.675186,-1.352111,3.313023,0.745675,4.804406,-71.151863,-60.610081
482,392316353,34.263695,-28.909370,99.227356,-0.290080,3.570885,0.637618,0.917135,-60.549347,-51.844673
483,392333020,34.803741,-29.136826,98.050552,0.510327,3.798511,0.355510,-0.373848,-47.247906,-43.220810
484,392349687,35.204605,-29.218534,97.188637,1.065575,3.784479,0.267608,0.322319,-30.919048,-34.274258
485,392366354,35.551174,-29.168835,96.610115,1.602570,3.668388,0.261307,5.350850,-16.111174,-26.537573
486,392383021,35.845314,-29.040691,96.277748,1.832282,3.455615,0.491008,9.437931,-4.919312,-18.747171
487,392399688,36.066906,-28.882545,96.147667,1.724870,3.329906,0.672417,11.010276,2.676510,-11.212379
488,392416355,36.194256,-28.730808,96.201935,1.315788,3.466628,0.521807,10.707439,8.044255,-3.181637
489,392433022,36.278336,-28.611860,96.464378,1.143942,3.514575,0.459930,14.101124,12.936950,6.804132
490,392449689,36.352100,-28.554333,96.897079,1.291270,3.714791,0.552485,18.349987,15.297033,16.201099
491,392466356,36.485657,-28.603367,97.502037,1.216114,3.746169,0.506248,26.879719,15.571185,27.265718
492,392483023,36.722820,-28.785303,98.279739,1.106995,3.710064,0.379754,38.143024,14.664749,39.236675
493,392499690,37.195244,-29.095779,99.213875,1.111891,3.689688,0.254519,56.975243,13.626389,50.257339
494,392516357,38.131187,-29.556749,100.277473,1.339529,3.668970,0.083842,88.924767,11.127173,60.806366
495,392533024,39.336586,-30.155210,101.460838,0.602549,3.674287,0.224080,109.180710,9.545304,70.360397
496,392549691,40.290802,-30.826468,102.853729,-1.105837,3.492036,1.117216,101.173035,14.203635,80.960388
497,392566358,40.971809,-31.480465,104.408981,-1.787925,3.326351,1.813253,90.651024,21.253553,86.009903
498,392583025,41.393768,-32.127537,106.100334,-1.464016,3.180239,2.050534,80.316681,26.601536,90.322525
499,392599692,41.400200,-32.771950,107.927048,-1.138994,2.866788,2.312136,60.713333,31.192057,94.794930
500,392616359,40.892319,-33.388512,109.904770,-1.153158,2.349732,2.467683,35.820183,36.602036,99.058525
501,392633026,39.922977,-33.965015,112.032188,-1.415143,1.753050,2.355615,14.146875,41.554203,103.148972
502,392649693,38.495171,-34.505302,114.334511,-1.769006,1.138432,2.235577,-6.418705,46.114899,108.825012
503,392666360,36.703773,-34.985466,116.794777,-1.966531,0.844310,1.975824,-21.819324,50.218632,113.520844
504,392683027,34.737701,-35.410347,119.385262,-1.916837,0.655642,1.451777,-26.835258,52.496380,117.844727
505,392699694,32.865849,-35.807339,122.040100,-1.888269,0.366878,0.939135,-18.025208,51.294033,120.711441
506,392716361,31.145117,-36.174652,124.685226,-2.207254,-0.582533,0.762551,-8.440783,48.410023,120.421684
507,392733028,29.559752,-36.534737,127.224716,-2.245792,-1.196548,0.424678,-3.264541,42.405689,116.660316
508,392749695,28.175701,-36.899410,129.613831,-2.262355,-1.774455,0.032871,4.190278,35.355244,111.046043
509,392766362,26.830173,-37.281403,131.854614,-2.092443,-2.027210,-0.277596,1.878944,28.237404,105.568413
510,392783029,25.530436,-37.689743,133.906891,-1.844485,-1.665286,-0.518052,-1.524996,20.161297,98.355949
511,392799696,24.280415,-38.139660,135.777359,-1.718341,-0.993177,-0.652939,-4.518203,11.839860,91.537407
512,392816363,23.067440,-38.599880,137.500809,-1.985309,-0.443125,-0.651537,-7.070299,6.303391,85.204079
513,392833030,21.958286,-39.017567,139.132294,-2.068544,-0.359876,-0.413820,-3.682652,5.093438,79.928368
514,392849697,20.949713,-39.321537,140.584183,-1.633959,-0.407558,-0.231194,-3.973763,6.768343,69.399261
515,392866364,20.163126,-39.545826,141.869476,-0.983766,-0.848887,0.090820,3.305637,7.353854,60.367683
516,392883031,19.537790,-39.680363,142.927643,-0.509474,-1.030722,0.221985,4.474621,8.053720,48.617805
517,392899698,19.007881,-39.736252,143.770981,-0.320828,-0.718555,0.224610,2.045768,8.720858,37.726852
518,392916365,18.616791,-39.707836,144.396866,-0.307592,-0.634261,0.113426,2.046223,9.964013,26.667934
519,392933032,18.319292,-39.570312,144.793335,-0.393554,-0.457186,-0.389177,-1.161934,12.664529,14.638195
520,392949699,18.316355,-39.354416,144.933609,0.358984,-1.097897,-0.220713,6.683966,13.372995,1.974760
521,392966366,18.616156,-39.185505,144.856079,1.128502,-2.047405,0.082765,16.552683,7.505229,-6.748532
522,392983033,19.245960,-39.129112,144.547424,1.297161,-3.019041,0.260084,27.601406,-2.428399,-14.801539
523,392999700,20.014212,-39.253094,144.002121,1.412596,-3.571664,0.043900,26.925444,-16.498720,-21.503609
524,393016367,20.787762,-39.533306,143.162994,1.248305,-2.599194,-0.233933,15.962293,-30.300278,-30.724285
525,393033034,21.603968,-39.930744,141.978897,0.491431,-0.884171,-0.873880,5.059566,-42.967625,-42.434174
526,393049701,22.738087,-40.335217,140.462845,-0.860923,0.367548,-1.485233,10.913102,-49.699493,-55.359592
527,393066368,24.465307,-40.725052,138.743561,-1.146285,-0.282689,-1.469662,38.091328,-53.804333,-62.598145
528,393083035,26.588167,-40.969177,136.848923,-0.905410,-0.029035,-1.243011,54.511539,-51.255676,-71.401039
529,393099702,28.783112,-41.002075,134.907364,-0.123946,0.806859,-0.122117,56.782040,-43.585842,-77.065201
530,393116369,31.274340,-40.736572,132.913879,0.292242,1.722371,0.589552,72.696571,-32.453239,-86.393845
531,393133036,34.553650,-40.108212,130.948792,-0.084274,2.034570,0.734529,121.791519,-18.107737,-95.956406
532,393149703,38.672443,-39.212009,129.189453,0.729638,-0.793442,1.021557,181.236130,-6.289997,-97.426781
533,393166370,42.387566,-37.968399,127.665512,2.006707,-1.879930,0.118839,167.352921,9.282892,-102.937782
534,393183037,45.898647,-36.654552,126.309380,4.232754,-4.602663,-0.958740,162.824356,10.507306,-101.468704
535,393199704,49.627224,-35.683826,125.106979,4.691032,-7.283275,-2.165863,182.619766,-4.966187,-82.394783
536,393216371,52.542942,-35.345718,124.117096,4.376219,-9.816433,-2.889245,141.931122,-25.877377,-46.265301
537,393233038,54.261410,-35.819416,123.368095,4.476415,-9.587862,-4.149597,78.450523,-47.298138,0.927444
538,393249705,54.959885,-37.044086,122.846748,4.531933,-7.804760,-4.795306,24.816370,-64.092819,45.236023
539,393266372,55.010639,-38.859921,122.558159,4.174046,-5.893193,-4.386646,-6.114347,-74.723373,81.311050
540,393283039,54.795544,-41.080128,122.544128,3.539758,-4.907472,-3.499963,-11.957664,-78.153282,108.541786
541,393299706,54.340591,-43.462582,122.807503,2.866975,-4.787413,-2.633759,-15.177949,-74.382355,123.178574
542,393316373,53.581303,-45.824116,123.368111,2.529433,-4.374207,-2.090405,-20.427486,-65.050728,128.584473
543,393333040,52.541977,-48.121086,124.243301,2.485169,-3.778703,-1.784797,-22.479513,-55.227592,131.621826
544,393349707,51.313381,-50.307289,125.465607,2.083152,-2.868724,-1.887868,-16.694435,-44.220306,132.739151
545,393366374,49.925316,-52.325306,126.928947,1.918768,-1.937088,-2.005085,-13.249632,-35.449474,128.341278
546,393383041,48.444473,-54.126659,128.526489,0.900093,-1.373252,-1.736074,-10.584974,-28.263254,119.239830
547,393399708,46.799740,-55.719761,130.393616,-0.033515,-1.423415,-1.545759,-5.513752,-17.915312,113.936729
548,393416375,45.188663,-57.095371,132.438477,-0.095876,-1.773818,-1.314464,7.019001,-9.561235,106.461548
549,393433042,43.961174,-58.221134,134.249344,0.235354,-1.231252,-0.819110,19.623600,-8.367800,88.750000
550,393449709,43.048981,-59.119480,135.626358,0.050524,-1.129474,0.042204,17.315397,-10.569871,68.209312
551,393466376,42.735935,-59.812828,136.579208,-0.281415,-1.047166,0.455289,31.928635,-11.758695,49.541409
552,393483043,42.752697,-60.139866,137.284515,-0.166034,-0.642048,0.655000,39.114235,-1.087486,28.817259
553,393499710,42.749836,-60.098816,137.886505,-0.060806,0.548099,0.922747,32.612465,12.974950,11.492645
554,393516377,42.575779,-59.794674,138.545410,0.492004,1.188698,1.217783,25.242716,25.790319,2.140867
555,393533044,42.468773,-59.204838,139.128311,0.961183,2.089121,1.575809,25.182024,37.034031,-10.890115
556,393549711,42.584801,-58.299458,139.494293,0.870289,2.111751,1.410982,27.204060,46.686619,-28.380281
557,393566378,42.932617,-57.033039,139.609344,-0.081311,1.621951,1.432096,28.174017,57.249458,-48.935650
558,393583045,43.309013,-55.386345,139.590988,-1.391436,0.195539,1.295276,23.138992,70.649330,-68.042297
559,393599712,43.463848,-53.422440,139.588577,-1.653140,0.275298,0.953823,10.643652,84.530403,-81.065918
560,393616379,43.514103,-51.326927,139.545105,-1.043233,1.705100,0.262122,2.421437,89.078651,-87.748543
561,393633046,43.868359,-49.267494,139.265564,-0.887632,2.403210,0.177750,9.818831,80.901474,-93.170319
562,393649713,44.701324,-47.202858,138.653534,-2.169512,1.584140,0.195709,24.055534,70.560455,-104.075447
563,393666380,45.658264,-45.094673,137.929108,-3.966610,-0.610164,0.295733,27.539230,66.762276,-111.022247
564,393683047,46.418152,-42.882023,137.113708,-3.776297,-1.579618,-0.112470,13.080119,65.785889,-120.069000
565,393699714,47.127819,-40.609295,135.947556,-1.412253,-0.423531,-0.494737,-2.542596,54.322605,-135.187088
566,393716381,47.963223,-38.508232,134.318954,0.276175,0.285355,-0.596566,-10.652058,28.470299,-143.933014
567,393733048,48.924332,-36.694923,132.279236,0.378536,-0.216975,0.269272,-15.546780,-1.421869,-145.798981
568,393749715,49.899448,-35.114563,129.881424,-0.487998,-0.732531,0.914781,-24.401745,-27.843721,-147.889252
569,393766382,50.814957,-33.729172,127.273170,-1.339079,-0.900018,1.219397,-32.069344,-47.414223,-146.430649
570,393783049,51.620850,-32.519772,124.591393,-1.231481,-0.023894,1.242922,-38.111317,-60.637123,-141.034241
571,393799716,52.569027,-31.471821,121.811615,-0.463244,1.063659,1.089386,-30.017763,-74.016815,-136.573853
572,393816383,53.697407,-30.575861,118.927582,0.268921,1.414150,1.481578,-20.016994,-87.419792,-132.038239
573,393833050,55.061954,-29.840864,115.974167,0.377766,1.822858,1.553524,-5.819092,-99.836014,-125.104507
574,393849717,56.443489,-29.241327,113.017906,-0.070731,1.945042,2.166328,-3.094445,-108.350525,-116.648773
575,393866384,57.616028,-28.762457,110.161354,-0.646521,2.487359,2.380801,-11.268723,-111.153847,-105.754623
576,393883051,58.487537,-28.407249,107.475075,-0.839309,3.246076,2.439621,-23.339401,-109.840469,-93.054878
577,393899718,59.102802,-28.181353,104.922905,-0.546277,3.773895,2.297198,-34.178200,-109.327415,-81.535225
578,393916385,59.524437,-28.143148,102.515259,-0.388511,4.001581,2.116241,-41.387554,-109.372421,-67.058128
579,393933052,59.820423,-28.264732,100.296661,-0.231676,4.242043,2.161604,-43.655354,-105.956169,-53.037643
580,393949719,59.973869,-28.578669,98.370850,-0.062169,4.504279,1.770627,-44.287842,-98.374290,-34.779388
581,393966386,60.024319,-29.041056,96.783218,0.314122,4.745072,1.043974,-41.372471,-87.161537,-17.821371
582,393983053,60.139229,-29.641163,95.562363,0.403963,4.872293,0.574183,-27.494648,-74.308578,-0.759946
583,393999720,60.404491,-30.359543,94.773415,0.153149,5.050728,0.457925,-6.242972,-57.972237,16.975531
584,394016387,60.812958,-31.196630,94.512268,0.141186,5.065549,0.735835,17.997454,-37.374954,37.020340
585,394033054,61.323460,-32.116058,94.883484,0.608206,5.385501,0.761330,43.830795,-11.084194,57.312199
586,394049721,61.687160,-33.061817,95.965645,0.225996,5.131459,1.460754,58.305317,20.021435,75.820915
587,394066388,61.649178,-33.898720,97.684578,-1.277156,4.072709,2.490906,56.134800,50.907055,84.863983
588,394083055,61.069851,-34.788441,99.995895,-2.079575,3.362640,2.512879,44.997864,73.927917,101.563957
589,394099722,60.009010,-35.659050,102.675407,-2.454073,3.235389,2.168653,30.605652,87.688530,109.898117
590,394116389,58.420830,-36.451725,105.627602,-2.642673,3.132154,1.756800,10.500898,97.715225,113.969322
591,394133056,56.383636,-37.281803,108.897820,-2.534497,3.435865,0.929151,-2.964208,104.458153,126.336929
592,394149723,54.142513,-38.031734,112.312386,-2.670868,3.170330,0.801381,-7.751595,106.694298,129.202087
593,394166390,51.909027,-38.710953,115.773918,-3.052248,2.532617,0.643269,-3.526435,104.627136,130.296371
594,394183057,49.710922,-39.283421,119.160889,-3.156601,1.493355,0.772553,-2.447888,99.760857,126.223457
595,394199724,47.464199,-39.790798,122.411789,-3.024640,1.098201,0.831069,-9.080656,91.738701,122.138794
596,394216391,45.387199,-40.300983,125.549858,-2.887652,1.323579,1.000638,-1.921726,82.390175,121.335388
597,394233058,43.481117,-40.871498,128.630219,-3.472376,0.833730,1.438556,7.434366,72.893463,123.992729
598,394249725,41.498852,-41.476597,131.542389,-4.584802,-0.705506,1.676250,-2.348133,61.143532,121.311539
599,394266392,39.238087,-42.086990,134.255417,-4.529523,-2.051977,1.282062,-25.628685,49.805321,116.013931
600,394283059,37.038860,-42.764610,136.755341,-3.274965,-1.611781,0.201153,-29.211142,35.491539,112.008400
601,394299726,35.022873,-43.573036,139.104919,-2.039535,-1.454424,0.161454,-22.962572,20.354774,111.501183
602,394316393,33.022682,-44.404442,141.259796,-1.506093,-1.320191,0.155733,-28.667759,9.807354,104.836205
603,394333060,31.124786,-45.191238,143.232513,-1.622984,-1.468532,0.590608,-28.932276,3.698855,96.067955
604,394349727,29.254070,-45.758221,144.954361,-2.215810,-1.405561,0.522749,-37.046043,6.128179,79.560036
605,394366394,27.274227,-45.952019,146.471802,-2.202199,-1.470721,0.695083,-51.919384,18.890415,61.198536
606,394383061,25.013220,-45.675827,147.794937,-1.364788,-0.806852,1.004291,-77.193993,38.364273,42.218513
607,394399728,22.449493,-44.930336,148.778656,-0.729605,-0.551179,1.259348,-110.328590,56.766060,19.855938
608,394416395,19.501303,-43.726791,149.341248,-1.117104,-1.002054,1.150096,-151.762360,75.187004,-3.443720
609,394433062,16.369219,-42.082352,149.367477,-1.058790,-1.237268,0.351407,-185.308014,93.351120,-29.422037
610,394449729,13.165265,-40.137947,148.893036,-0.167377,-1.474462,-0.303481,-209.405365,106.474167,-50.607468
611,394466396,10.190472,-38.069336,147.895065,1.109106,-1.641692,-0.539186,-214.709961,111.270935,-70.753021
612,394483063,7.447066,-35.987324,146.286331,1.742313,-1.583421,-0.692931,-221.190063,110.748604,-95.421127
613,394499730,4.974650,-33.936985,144.067642,2.084374,-1.601389,-1.259720,-223.090179,109.600052,-121.884521
614,394516397,3.053668,-32.095181,141.486374,3.514109,-1.890646,-1.836185,-198.118118,100.234489,-137.392593
615,394533064,2.287389,-30.680370,138.528275,4.915339,-3.336123,-2.656292,-136.906281,76.807068,-155.399200
616,394549731,2.971521,-29.775459,135.385818,5.082483,-3.966600,-4.354475,-52.388165,45.821533,-165.314667
617,394566398,5.064127,-29.262993,132.369370,4.045413,-5.847368,-5.544878,37.847763,18.686668,-159.349976
618,394583065,8.279229,-29.102081,129.857635,4.048535,-6.332867,-5.563699,120.883911,-6.656097,-131.902832
619,394599732,12.266296,-29.402821,128.081635,4.583415,-5.428783,-5.468888,188.613068,-35.311562,-88.371735
620,394616399,16.583300,-30.232288,127.146103,3.788647,-4.855782,-5.230531,232.573898,-61.330406,-34.874828
621,394633066,20.485233,-31.484095,127.053818,2.683288,-4.277049,-5.109531,232.737717,-73.740051,19.270323
622,394649733,23.549360,-33.034924,127.625641,2.316711,-4.260031,-4.750595,203.618347,-76.409378,61.691116
623,394666400,25.903294,-34.813477,128.665787,2.305675,-4.662134,-4.309427,177.521347,-76.293579,91.588745
624,394683067,27.700912,-36.762630,130.131042,2.549509,-5.003135,-3.635637,160.722305,-73.255470,116.307877
625,394699734,28.882463,-38.755749,131.981552,3.086132,-5.302575,-3.065328,140.332962,-64.728783,133.895584
626,394716401,29.253090,-40.661934,134.126480,3.590328,-5.372295,-2.568694,105.914902,-52.898048,142.026077
627,394733068,28.897299,-42.402740,136.374908,3.951262,-5.161100,-3.137528,69.557182,-43.254887,138.946304
628,394749735,28.073677,-44.002502,138.564758,3.716798,-5.266852,-3.949274,41.982311,-39.743389,129.894775
629,394766402,27.039026,-45.585083,140.666046,3.664305,-5.014999,-4.095286,28.195221,-43.859497,123.190308
630,394783069,26.098911,-47.245876,142.483246,3.373828,-3.603832,-3.610698,24.011370,-56.581882,111.753777
631,394799736,25.356491,-48.883820,143.885818,2.560035,-3.577587,-2.461928,19.486269,-65.213608,93.284988
632,394816403,25.002817,-50.436344,144.718399,2.302508,-3.476432,-2.604463,18.278744,-71.644226,68.865204
633,394833070,25.282587,-51.952785,144.842590,2.431768,-3.662509,-1.933380,24.005722,-81.492477,42.862099
634,394849737,26.256207,-53.280880,144.142258,1.449901,-2.930713,-0.264700,26.436749,-83.970596,11.653931
635,394866404,27.864515,-54.300117,142.845062,1.211897,-2.060261,1.258312,35.103657,-76.494675,-13.132479
636,394883071,30.112299,-54.963669,141.040955,2.065011,-1.814008,1.901714,48.004337,-66.311615,-35.511246
637,394899738,32.994217,-55.221798,138.651031,1.710821,0.118520,2.185779,56.725063,-57.264877,-61.812489
638,394916405,36.401127,-54.991364,135.608002,1.677334,0.653858,2.401513,56.061741,-49.223766,-93.725159
639,394933072,39.678127,-54.264038,132.174561,0.544804,0.448537,3.397279,30.040596,-40.265587,-120.782974
640,394949739,42.158714,-53.079693,128.688797,0.113677,-0.317373,4.686962,-18.248386,-28.615873,-140.129471
641,394966406,43.435890,-51.504681,125.316322,0.446321,-1.309937,5.912016,-82.030403,-15.915177,-154.980804
642,394983073,43.696468,-49.658211,121.591942,0.660041,0.202584,5.467012,-155.554428,-18.709343,-179.134140
643,394999740,43.526951,-47.649864,117.475731,-0.498179,2.887414,3.179733,-194.125854,-26.502859,-201.216248
644,395016407,43.570686,-45.476501,113.229912,-1.956210,2.172358,1.966854,-180.894760,-27.387527,-216.773056
645,395033074,43.602097,-43.373512,109.538673,-4.408779,1.454595,2.284934,-151.663635,-18.862270,-201.562485
646,395049741,43.859478,-41.234734,106.097649,-5.388049,1.064200,2.356896,-122.040855,-14.023404,-199.053391
647,395066408,43.694817,-39.091389,102.828926,-6.878951,-0.168958,3.222261,-134.882721,-12.026065,-197.207993
648,395083075,42.992340,-37.102905,99.686584,-6.121689,0.701896,1.496215,-156.982971,-16.245949,-189.819366
649,395099742,42.087372,-35.486797,96.659294,-3.790610,0.853165,0.583061,-160.323654,-28.694510,-173.454956
650,395116409,41.447182,-34.315372,93.771019,-2.987047,1.499867,0.086772,-136.073059,-43.398144,-152.855042
651,395133076,41.209415,-33.568577,90.963249,-3.694439,2.030294,0.638208,-106.839630,-59.782269,-134.572220
652,395149743,41.339035,-33.136906,88.131821,-4.279715,3.189642,1.185617,-84.140541,-75.270699,-123.769630
653,395166410,41.547485,-32.909725,85.414848,-3.840731,4.303610,1.235330,-74.851135,-81.362228,-111.515831
654,395183077,41.944416,-32.816204,82.917786,-2.184553,5.426396,0.675924,-56.004322,-80.702995,-97.667511
655,395199744,42.686291,-32.824799,80.692947,-0.530621,6.225767,0.350994,-26.364454,-76.986336,-82.648102
656,395216411,43.681343,-32.955704,78.829933,0.161300,6.653157,0.536669,0.481528,-71.030289,-63.118427
657,395233078,44.663551,-33.221733,77.424049,0.666158,6.989167,0.938073,14.361034,-61.746719,-39.627380
658,395249745,45.549557,-33.624409,76.538452,1.224880,7.375465,1.055153,25.377518,-49.503571,-14.257296
659,395266412,46.221611,-34.148613,76.244812,1.568564,7.569669,1.348132,31.983816,-33.413601,12.315088
660,395283079,46.685020,-34.777859,76.517769,1.809602,7.598444,1.393950,38.561642,-17.222883,36.568516
661,395299746,46.850258,-35.482605,77.315628,2.181368,7.251453,1.495023,38.952305,-1.420607,57.510052
662,395316413,46.800949,-36.255234,78.586235,2.118805,6.878136,1.485353,43.207157,12.369130,75.944710
663,395333080,46.563858,-37.083076,80.327591,1.469678,6.329093,1.829167,49.670753,25.946564,93.481552
664,395349747,46.176495,-37.905563,82.499420,0.764108,5.906496,2.147786,57.582695,39.847473,106.892998
665,395366414,45.590916,-38.636131,85.037384,0.058677,5.369448,2.296992,60.697617,54.393990,114.511620
666,395383081,44.685318,-39.226070,87.857994,-0.045601,4.248892,2.157000,53.533253,67.432945,117.762589
667,395399748,43.626022,-39.715309,90.910240,-0.304881,2.879439,1.820810,54.391060,76.517235,121.674736
668,395416415,42.553112,-40.119946,94.104797,-0.588108,2.165052,1.455247,60.155083,81.794411,123.734520
669,395433082,41.597397,-40.398327,97.371605,-1.276862,2.355330,1.302755,70.868790,86.938736,122.009995
670,395449749,40.702175,-40.505669,100.741669,-2.467269,2.247981,1.473311,79.026939,95.503433,119.888565
671,395466416,39.686859,-40.414600,104.252731,-3.032263,1.745105,1.552794,77.337151,106.725990,118.695877
672,395483083,38.397095,-40.134224,107.925011,-3.001774,1.238928,1.520584,66.612137,118.065094,119.758545
673,395499750,36.889122,-39.718510,111.681656,-2.701116,0.786505,1.433579,55.752346,124.429161,121.426231
674,395516417,35.083118,-39.198586,115.382484,-3.147574,0.032555,1.455298,34.335758,125.094933,120.187248
675,395533084,32.988937,-38.609989,118.937531,-3.888133,-0.922013,1.437535,9.887736,121.293343,117.586800
676,395549751,30.481840,-37.931824,122.315094,-4.215008,-1.585050,1.284686,-23.320559,117.421715,113.720558
677,395566418,27.519487,-37.078270,125.548042,-3.587605,-2.020478,1.203581,-58.055031,118.532372,109.579735
678,395583085,24.148605,-36.094543,128.592941,-2.201653,-2.283216,0.600642,-91.771820,116.193420,106.152412
679,395599752,20.758533,-35.136734,131.294144,-0.876533,-1.880933,0.014760,-107.443558,102.582733,99.666405
680,395616419,17.816351,-34.366524,133.681305,-0.608827,-1.242855,-0.597735,-93.315720,81.640961,95.668968
681,395633086,15.242605,-33.656994,135.824173,-1.112610,-1.047266,-0.857617,-80.941902,70.285965,89.922874
682,395649753,12.865643,-32.891144,137.760056,-1.555491,-1.306171,-1.018661,-77.328758,67.310364,82.915489
683,395666420,10.577522,-31.998501,139.384644,-1.228295,-0.613276,-0.589487,-83.435661,68.307228,69.543030
684,395683087,8.626021,-31.111372,140.692017,-1.007667,0.420163,-0.385392,-74.484093,62.788258,56.916378
685,395699754,7.347133,-30.322416,141.661743,-0.878881,-0.258696,-0.099813,-45.461052,52.988220,42.848515
686,395716421,6.376386,-29.641785,142.198410,-0.989018,-1.100800,0.121454,-40.605217,43.039066,22.705433
687,395733088,5.366301,-29.096094,142.288879,-1.167453,-1.549023,0.077188,-56.398247,32.217060,1.254714
688,395749755,4.191014,-28.689848,141.915710,-1.079115,-0.714216,0.491761,-79.795998,21.820318,-21.660616
689,395766422,3.062517,-28.479185,141.127289,-0.337228,-0.972546,1.014894,-88.808144,9.150497,-42.344246
690,395783089,2.130283,-28.502481,139.900894,0.148600,-2.204398,1.245653,-89.504883,-5.163730,-64.624153
691,395799756,1.292873,-28.719471,138.314407,0.867251,-1.685428,1.417225,-94.306076,-16.353024,-83.219002
692,395816423,0.988011,-29.048719,136.344696,0.903631,-1.293780,1.326731,-73.865990,-22.658550,-103.140419
693,395833090,1.416253,-29.218443,133.999725,0.479168,-1.646567,0.819234,-41.302273,-13.613986,-122.726257
694,395849757,2.859655,-29.100126,131.290222,1.651016,-2.174483,0.118158,8.875813,0.933413,-142.197495
695,395866424,5.656740,-28.776567,128.384872,2.700994,-3.590219,-1.130713,84.934692,7.156096,-153.645325
696,395883091,9.096640,-28.160650,125.333031,2.283843,-4.415802,-2.852408,120.547104,15.085971,-164.461136
697,395899758,12.705822,-27.163567,122.318375,2.495544,-6.585295,-3.676703,133.997482,27.528746,-168.715134
698,395916425,16.649734,-26.071512,119.630188,3.263010,-8.123751,-4.829998,165.782028,25.906824,-156.190781
699,395933092,20.287531,-25.381317,117.680923,2.795497,-8.722197,-6.030360,168.924576,4.936242,-113.147545
700,395949759,22.926903,-25.491982,116.694588,2.788669,-7.844938,-6.789494,134.376526,-26.846531,-47.326908
701,395966426,24.459021,-26.423914,116.755722,3.026146,-6.848544,-6.905448,94.960495,-50.898514,25.413948
702,395983093,25.097496,-27.888815,117.745049,4.044766,-5.382967,-6.868252,66.824875,-58.707737,84.722511
703,395999760,25.442753,-29.783293,119.400208,4.360122,-5.511812,-6.458721,70.037956,-66.709213,127.130722
704,396016427,25.666183,-32.018600,121.531158,3.166799,-6.304210,-5.594503,80.491402,-74.742592,156.771210
705,396033094,25.589554,-34.342422,123.961227,2.502778,-6.426812,-4.150202,76.620026,-74.012131,170.281357
706,396049761,25.334110,-36.604458,126.483017,3.333535,-5.668129,-2.886072,73.894043,-70.661240,169.562347
707,396066428,25.060343,-38.747341,129.059280,4.066264,-3.988741,-2.509859,79.449799,-65.366150,165.410965
708,396083095,24.956848,-40.792610,131.692413,4.165964,-3.022202,-2.658930,96.248688,-61.001480,161.904999
709,396099762,24.962559,-42.660286,134.337524,3.269411,-2.021556,-2.784029,107.358505,-52.751797,154.660904
710,396116429,24.969933,-44.324642,136.766479,2.512473,-1.501303,-2.883017,102.125916,-47.054913,137.993790
711,396133096,25.050299,-45.684132,138.953979,1.849381,-1.761990,-2.383803,99.007591,-35.845921,118.588341
712,396149763,25.031929,-46.742573,140.919540,1.726141,-1.617614,-1.967980,85.401131,-24.160112,100.829575
713,396166430,24.976673,-47.581474,142.534744,1.735561,-0.981801,-1.728978,69.107468,-18.933727,81.012474
714,396183097,25.286728,-48.323013,143.493530,1.573088,-0.422327,-1.780214,62.679138,-25.090717,53.803841
715,396199764,26.362623,-48.986084,143.554291,0.219745,-0.833139,-1.965723,68.647408,-35.935658,19.528862
716,396216431,28.244617,-49.483265,142.638107,-0.314089,-1.479924,-1.309144,72.639954,-44.145504,-18.175665
717,396233098,31.084038,-49.887398,140.887009,-0.729749,-0.098557,-0.574736,91.606720,-55.877918,-47.022911
718,396249765,35.296314,-50.076084,138.548660,-0.984420,0.956795,1.171041,146.637863,-60.021484,-69.255272
719,396266432,40.543369,-49.842033,135.847458,-1.881823,0.162455,2.623658,192.091507,-54.152546,-90.831200
720,396283099,45.831833,-49.004471,133.331985,-3.231785,-1.688785,4.122331,204.026840,-31.687243,-105.917000
721,396299766,50.089645,-47.568718,131.341644,-2.962446,-3.035248,5.177668,167.679764,-2.446335,-117.125328
722,396316433,53.364990,-45.687279,129.658752,-0.303954,-0.790885,4.680655,124.471786,14.379997,-131.497925
723,396333100,56.221111,-43.605145,127.816444,1.826534,1.907065,3.109597,95.042503,6.663732,-147.337219
724,396349767,58.878490,-41.515644,125.803276,0.969124,1.644234,3.297168,79.110786,-8.914709,-153.457428
725,396366434,60.900883,-39.546673,123.863625,-1.200171,0.226226,4.020968,47.101707,-18.357895,-146.502457
726,396383101,61.872204,-37.602547,122.118416,-2.154599,-0.618393,5.398399,-5.607688,-17.103737,-141.545120
727,396399768,61.844147,-35.739670,120.389404,-1.492309,0.456198,4.864069,-62.219662,-21.746790,-137.753510
728,396416435,61.376858,-34.066628,118.480736,-1.384128,1.701691,3.347589,-92.136047,-35.991360,-132.923294
729,396433102,60.788944,-32.600594,116.359146,-1.342767,2.047361,2.575499,-103.788811,-51.651802,-128.391617
730,396449769,60.124435,-31.305260,114.044975,-1.613935,1.963775,1.684629,-111.905235,-65.261864,-125.689034
731,396466436,59.397354,-30.134613,111.564850,-1.983685,1.759528,1.242070,-118.188393,-76.235641,-125.101227
732,396483103,58.683441,-29.061853,108.939499,-2.225395,1.725247,1.053238,-119.173347,-85.420792,-125.658897
733,396499770,58.002998,-28.096767,106.214569,-2.333340,1.966471,0.868355,-117.573402,-92.898911,-124.656380
734,396516437,57.425678,-27.238928,103.418015,-1.936562,2.423470,0.570125,-111.081917,-99.207619,-122.913162
735,396533104,56.913677,-26.459726,100.587914,-1.156198,2.964721,0.612552,-105.939873,-103.016609,-121.452759
736,396549771,56.608429,-25.809877,97.787354,-0.529260,3.349376,0.382438,-90.857880,-105.853889,-115.341446
737,396566438,56.495758,-25.306255,95.098145,-0.370514,3.651409,0.547029,-74.893623,-105.846001,-105.498222
738,396583105,56.563393,-24.963833,92.648361,-0.300663,4.190938,1.128153,-56.893040,-100.702477,-90.590034
739,396599772,56.608646,-24.780056,90.565384,-0.291329,4.665342,1.453559,-48.364902,-89.598480,-71.721626
740,396616439,56.560253,-24.777155,88.893440,0.017856,5.168257,1.320342,-43.459255,-76.945427,-50.393543
741,396633106,56.468056,-24.981226,87.662781,0.184331,5.648544,1.066451,-35.105991,-63.630814,-26.847757
742,396649773,56.417736,-25.388670,86.900772,0.042944,6.059501,0.932771,-20.983017,-48.987865,-2.611151
743,396666440,56.334766,-25.963348,86.648132,-0.247999,6.358440,0.910077,-10.050298,-31.451178,21.021973
744,396683107,56.061153,-26.659004,86.932625,-0.429603,6.263505,1.134057,-7.354804,-11.478542,43.060787
745,396699774,55.508522,-27.424583,87.744110,-0.251164,6.002593,1.097457,-9.523258,9.071527,62.223019
746,396716441,54.860680,-28.270573,89.024879,0.142186,5.669211,0.840022,-1.472665,25.852104,80.309128
747,396733108,54.196491,-29.189552,90.705193,0.194817,5.178284,0.711288,10.116975,39.061119,96.039764
748,396749775,53.486340,-30.182558,92.737038,-0.182938,4.726402,0.890298,19.276695,49.418240,110.414246
749,396766442,52.570518,-31.214184,95.059395,-0.703074,4.298901,1.202755,17.706955,57.566666,121.323288
750,396783109,51.427383,-32.268520,97.560822,-1.117006,3.796412,1.497308,11.895823,60.705177,128.238983
751,396799776,50.084858,-33.421650,100.080193,-0.985392,3.095671,1.533714,2.968325,53.666378,133.728607
752,396816443,48.573288,-34.782524,102.401131,-0.843196,2.750760,0.971610,-11.080859,33.327393,136.882324
753,396833110,46.936478,-36.422310,104.393448,-1.821717,2.443339,0.550572,-27.074528,4.892463,137.984070
754,396849777,45.113274,-38.439960,106.081955,-3.131333,1.712873,0.589534,-46.266788,-27.070887,142.788727
755,396866444,43.450958,-40.879238,107.432251,-4.503246,1.810831,-0.188032,-46.481190,-62.137085,146.652496
756,396883111,42.074310,-43.614658,108.475578,-5.436410,1.466057,-0.462182,-38.967422,-89.935776,145.277313
757,396899778,41.082790,-46.434605,109.204399,-5.654487,1.250472,-0.246133,-27.020647,-106.949829,135.235474
758,396916445,40.806629,-49.137501,109.666977,-5.271285,0.736114,0.061201,5.513200,-111.164024,120.196671
759,396933112,41.308918,-51.711452,110.145851,-4.529635,-0.467868,0.825561,53.793087,-105.315277,115.078789
760,396949779,42.615429,-54.093338,110.822792,-3.173639,-1.545083,1.360662,112.287437,-90.773788,113.619736
761,396966446,44.548084,-56.309883,111.878189,-1.843427,-2.250193,1.570578,169.451141,-72.317841,117.713928
762,396983113,46.464836,-58.254494,113.276779,-1.255105,-2.600512,1.362320,187.105072,-50.308899,114.868576
763,396999780,47.737095,-59.906109,115.084534,-0.845698,-1.933072,1.774510,170.890945,-27.522650,110.380127
764,397016447,47.956764,-61.278847,117.494034,-1.607603,-0.900185,2.308410,140.632965,-3.546268,108.539696
765,397033114,46.680531,-62.255154,120.735191,-2.386852,-0.783499,3.082285,96.277176,27.016819,105.255371
766,397049781,43.845695,-62.750084,124.949326,-1.751727,-0.435156,3.633605,55.725941,61.117359,103.082710
767,397066448,39.859398,-62.699184,129.789307,-0.714154,-0.345011,4.142269,20.475130,90.133339,96.917320
768,397083115,35.007530,-62.242886,135.189316,0.226717,-1.190943,4.449046,-2.229753,111.802620,102.105804
769,397099782,29.499580,-61.151905,140.517471,0.694831,-1.708104,4.367711,-47.417355,135.251160,93.110428
770,397116449,23.370319,-59.349339,145.220993,0.764078,-0.701210,3.175319,-121.122574,158.185745,77.127090
771,397133116,17.223078,-57.020218,149.009216,1.455822,0.072260,1.886214,-174.066986,171.655823,63.799690
772,397149783,12.041854,-54.478237,151.566315,1.797352,-0.973454,0.327015,-182.450638,168.438370,44.908688
773,397166450,8.296594,-52.074509,152.906738,2.552050,-2.755929,-1.058418,-158.686157,149.512741,21.755554
774,397183117,5.748762,-49.983959,152.909836,3.344362,-3.786732,-1.761854,-151.184952,123.569214,-15.338228
775,397199784,3.892300,-48.321964,151.796585,2.933429,-2.772279,-1.964463,-160.391617,94.742249,-52.029598
776,397216451,3.296906,-47.086842,149.901169,2.469217,-3.000474,-2.410353,-118.330666,68.192177,-81.139732
777,397233118,4.051093,-45.974087,147.248581,2.077031,-2.427204,-3.432010,-68.754456,58.622913,-113.652061
778,397249785,5.498041,-44.757042,144.150681,2.347067,-1.206658,-4.342903,-43.964428,60.897224,-136.314087
779,397266452,7.054933,-43.222385,140.918320,2.554297,-2.282813,-4.378133,-39.805496,75.258102,-148.863907
780,397283119,8.691553,-41.327923,137.774582,3.420822,-3.834924,-4.355134,-27.217836,92.449463,-153.922516
781,397299786,10.731447,-39.386021,134.963425,4.450239,-4.878543,-5.377088,14.635965,92.130203,-146.446213
782,397316453,12.695230,-37.677433,132.694519,4.332040,-6.366741,-6.287980,34.493080,77.728683,-125.195091
783,397333120,14.139632,-36.550644,131.189545,3.715975,-6.671456,-7.682082,33.660305,48.018936,-85.839371
784,397349787,14.883985,-36.227200,130.597107,3.626932,-6.281805,-8.526549,25.058018,10.575148,-32.671818
785,397366454,14.907911,-36.655304,130.965607,3.803751,-5.242153,-8.841092,16.050879,-21.302473,23.684597
786,397383121,14.500393,-37.564217,132.152298,4.270490,-3.559100,-8.026773,19.988642,-39.395016,68.656609
787,397399788,13.877891,-38.790699,133.923065,4.461266,-4.577068,-5.704116,29.801413,-51.934174,98.900375
788,397416455,13.108407,-40.184860,136.036346,3.689746,-5.857774,-4.324516,35.943943,-59.577473,114.564835
789,397433122,12.234934,-41.626381,138.275986,3.447716,-5.977005,-3.229598,37.060974,-63.180351,117.954010
790,397449789,11.412049,-43.078255,140.379776,3.774455,-5.439037,-2.240016,37.131786,-67.234474,109.050888
791,397466456,10.658894,-44.513229,142.185852,3.943347,-4.060294,-1.612284,31.269962,-70.627930,93.155624
792,397483123,10.022180,-45.968246,143.705322,4.032665,-2.938885,-1.399185,27.987623,-75.464531,78.726196
793,397499790,9.624018,-47.400757,144.889160,3.543913,-2.024299,-1.158408,29.240843,-77.489197,62.583973
794,397516457,9.582829,-48.747009,145.699951,2.795662,-1.663303,-1.024698,35.168961,-75.339058,45.434078
795,397533124,10.019386,-49.933643,146.077255,2.244266,-1.750168,-1.037369,44.811554,-68.770164,26.566515
796,397549791,10.914567,-50.996380,145.894211,1.956851,-1.785748,-0.813709,46.685410,-65.096954,4.622461
797,397566458,12.408127,-51.954700,145.046280,1.033354,-2.315516,-0.335409,51.254044,-63.844170,-19.496901
798,397583125,14.500557,-52.684952,143.463150,-0.168196,-2.154010,0.331738,51.809994,-57.246410,-46.353279
799,397599792,17.286045,-53.153667,141.185532,-0.075968,-1.722412,0.999278,59.544846,-50.734158,-71.618256
800,397616459,21.118599,-53.365147,138.327896,-0.861574,-0.995958,0.787994,93.987198,-46.840534,-92.752434
801,397633126,25.958450,-53.217644,134.945877,-1.061102,-0.830410,0.945723,129.133148,-41.454865,-114.795166
802,397649793,31.553698,-52.725143,131.115295,-0.768060,-0.526132,1.104271,153.639282,-41.808735,-135.603409
803,397666460,37.429276,-51.951576,126.902565,-0.861420,-0.596619,1.405315,153.833450,-50.333752,-153.602982
804,397683127,43.680691,-50.893040,122.414803,-0.376506,-0.321682,1.340193,165.961136,-62.050236,-168.884262
805,397699794,50.414261,-49.576431,117.566612,-0.802866,-0.458101,0.608376,181.768692,-83.494675,-184.599365
806,397716461,57.270699,-48.142235,112.543060,-1.863614,-1.507292,1.441194,185.729874,-110.470039,-186.457657
807,397733128,63.223953,-46.672859,107.617516,-2.905699,-2.812067,3.092817,140.988922,-131.005295,-175.762985
808,397749795,67.899055,-45.131882,102.769897,-3.540193,-2.686441,4.207485,73.013504,-147.110214,-167.863647
809,397766462,71.223457,-43.626247,98.068489,-3.621074,-2.279599,4.517082,3.597780,-158.452789,-155.007996
810,397783129,73.354782,-42.201923,93.499214,-3.729447,-1.304935,4.897554,-57.343132,-166.348557,-142.451080
811,397799796,74.297829,-40.961899,89.084305,-3.745836,-0.198244,5.097692,-117.741478,-170.649048,-126.627327
812,397816463,74.499229,-39.968143,84.810867,-3.129689,1.599400,4.214404,-152.818604,-172.925964,-109.888519
813,397833130,74.530182,-39.156609,80.672890,-2.946684,2.677802,3.002729,-154.765976,-172.523560,-98.038673
814,397849797,74.618378,-38.530666,76.725159,-2.804543,2.816390,2.662438,-141.757141,-168.908768,-85.298965
815,397866464,74.766319,-38.087372,73.036491,-2.825501,3.140308,2.368400,-126.812180,-161.539932,-71.538895
816,397883131,75.129555,-37.820339,69.659348,-2.809778,3.794194,2.211524,-101.318855,-151.176559,-57.013367
817,397899798,75.656464,-37.671097,66.694122,-2.792423,4.342409,2.125142,-75.791206,-134.914185,-44.200436
818,397916465,76.141663,-37.643391,64.198326,-2.368959,4.426882,1.810291,-60.866451,-115.604187,-30.560223
819,397933132,76.586090,-37.742748,62.120296,-1.599560,4.887280,1.055377,-48.063023,-98.306015,-17.538532
820,397949799,77.130608,-37.911606,60.384468,-0.878598,4.905981,0.812655,-29.702353,-83.430534,-8.915248
821,397966466,77.641449,-38.283470,59.051056,-0.577690,5.051680,0.370069,-17.211405,-67.324203,7.936609
822,397983133,78.114296,-38.744858,58.107555,-0.603208,5.152725,0.588380,-5.381205,-50.124226,17.670761
823,397999800,78.385071,-39.246681,57.603577,-0.545202,5.121468,0.828882,-1.284983,-30.139507,24.593285
824,398016467,78.293060,-39.748997,57.560791,-0.504964,5.103964,1.075241,-5.658580,-9.025995,29.011387
825,398033134,77.748268,-40.241047,57.955616,-0.299918,5.031821,0.977236,-15.969024,10.637501,32.535774
826,398049801,76.788086,-40.705757,58.771587,0.053683,5.196000,0.628385,-24.340338,29.197956,35.287189
827,398066468,75.433228,-41.132835,59.979240,0.433220,5.274711,0.152671,-32.338322,46.022457,37.895531
828,398083135,73.801544,-41.489330,61.550785,0.842333,5.501753,-0.557057,-34.158581,61.641037,39.279541
829,398099802,71.942551,-41.758911,63.474453,0.957650,5.529191,-0.775215,-33.378719,76.717178,40.730087
830,398116469,69.870346,-41.914425,65.734825,0.975690,5.534511,-0.951173,-32.368721,91.466560,41.725861
831,398133136,67.664787,-41.923138,68.263023,1.123442,5.449055,-1.134672,-29.487461,104.055511,41.213940
832,398149803,65.431267,-41.743088,70.999680,1.506619,5.490350,-1.482437,-22.988594,115.569931,38.625080
833,398166470,63.381477,-41.362663,73.854370,2.014257,5.452702,-2.095585,-7.859733,124.496864,34.626270
834,398183137,61.831089,-40.766045,76.732719,2.231749,5.548037,-2.680924,21.936432,131.117325,27.966873
835,398199804,61.085304,-39.954105,79.654686,1.553545,5.958927,-2.846667,70.298012,139.671524,20.868988
836,398216471,61.106678,-38.875156,82.683258,-0.200087,5.866802,-1.706190,118.168541,153.230713,11.016424
837,398233138,61.319218,-37.482086,85.887093,-2.831546,5.021796,0.222451,133.086258,171.730591,-0.651580
838,398249805,60.933437,-35.865738,89.429283,-5.579617,3.387467,1.887972,105.308952,195.136383,-2.770442
839,398266472,59.519772,-34.094379,93.400284,-6.813313,1.565346,3.481641,53.320145,221.255112,4.541469
840,398283139,57.044758,-32.434452,97.787857,-6.670546,0.359896,4.067596,-2.524928,238.632584,30.861746
841,398299806,54.009819,-31.092552,102.425552,-5.581584,-0.077903,3.801476,-34.022987,239.639954,67.389793
842,398316473,50.489468,-30.099125,107.263153,-4.470069,-0.429730,4.208461,-61.879009,233.076248,105.679970
843,398333140,46.372803,-29.464298,112.317444,-3.412765,-0.801530,4.808232,-94.736008,221.239685,145.987167
844,398349807,41.820049,-29.116655,117.523827,-3.266556,-0.989572,5.168829,-118.679276,203.623474,180.988083
845,398366474,37.287346,-28.936623,122.775162,-3.415630,-1.931530,5.383401,-117.419151,182.834564,205.381546
846,398383141,32.723343,-28.873491,128.003021,-2.843937,-2.340192,4.941093,-120.560287,159.694595,222.589493
847,398399808,28.063267,-28.971081,133.128693,-1.250731,-1.535197,4.362209,-129.208435,130.214630,235.000092
848,398416475,23.352369,-29.156370,137.915131,-0.595177,-0.531308,4.043805,-141.495270,97.952263,230.855698
849,398433142,18.721064,-29.384520,142.264740,-0.442808,-0.716205,3.826104,-148.650009,68.024002,217.262207
850,398449809,14.184915,-29.642942,146.019836,-0.247281,-0.878779,3.510316,-159.571014,39.738575,192.308823
851,398466476,9.679103,-29.952925,149.088425,0.269079,-0.708271,3.393543,-177.272324,13.908152,160.053833
852,398483143,5.145246,-30.340487,151.286484,0.434696,-0.141202,3.089211,-204.236328,-9.282212,115.986732
853,398499810,0.972556,-30.821598,152.555893,0.357091,0.458034,2.503543,-210.067719,-26.269337,66.911896
854,398516477,-2.436329,-31.325619,152.816788,-0.188502,0.909114,1.418810,-194.915482,-31.355869,12.910306
855,398533144,-4.781466,-31.795736,151.991318,-0.169169,1.697415,0.717145,-165.093140,-26.440189,-44.006088
856,398549811,-5.781567,-32.114044,149.871124,0.197738,2.865826,0.868293,-125.792007,-10.023835,-109.341980
857,398566478,-4.571418,-32.103825,146.634491,0.055927,3.440846,-1.843287,-29.092642,14.507339,-163.864594
858,398583145,-1.908754,-31.701056,142.726013,1.974281,-3.106980,-4.481426,37.314457,34.427998,-197.498810
859,398599812,2.072210,-30.999159,138.155060,4.744811,-6.967858,-5.730804,97.599968,40.810078,-234.372269
860,398616479,7.290840,-30.179266,133.237015,6.339805,-10.833582,-7.182956,164.321365,27.309036,-257.298492
861,398633146,13.248446,-29.523722,128.491791,6.036544,-13.521998,-9.800893,217.084549,-6.319599,-250.124725
862,398649813,19.166245,-29.436134,124.644272,4.355551,-13.506775,-12.134691,242.854706,-52.051491,-194.582596
863,398666480,24.896618,-30.308224,122.101463,4.898936,-10.196887,-11.644552,269.268585,-99.162048,-103.146172
864,398683147,30.348898,-32.140247,120.843147,5.243391,-6.991513,-10.116677,289.444611,-128.388260,-6.348790
865,398699814,35.536819,-34.555412,120.585869,4.708501,-3.993201,-9.097548,304.224213,-129.705231,67.902084
866,398716481,40.591488,-37.238155,120.976738,2.741904,-3.413008,-7.538184,318.458435,-116.102303,114.147278
867,398733148,45.144859,-39.964912,121.905914,0.803559,-4.902377,-5.644184,309.414154,-91.342262,143.196793
868,398749815,48.864471,-42.577900,123.206573,0.995951,-5.452497,-4.242793,276.094299,-65.068527,154.627045
869,398766482,51.760323,-44.986790,124.689339,2.883479,-5.407750,-3.204927,236.753860,-43.920349,152.195892
870,398783149,53.902813,-47.053223,126.243614,3.832617,-4.393187,-3.050480,197.113586,-24.348507,137.874390
871,398799816,55.243809,-48.718491,127.840775,4.152206,-4.141817,-3.083467,153.012955,-6.596591,118.618614
872,398816483,55.615791,-50.060574,129.645752,3.857965,-5.587124,-2.382568,106.001343,11.304561,106.255600
873,398833150,55.040913,-51.029900,131.693527,3.597785,-6.502198,-2.299282,61.843609,30.073330,92.202095
874,398849817,53.876469,-51.718891,133.629532,3.423605,-5.533722,-2.871054,22.345644,33.910488,75.750076
875,398866484,52.800076,-52.096226,134.973358,2.416020,-3.902629,-3.601356,0.331861,25.320419,47.835819
876,398883151,52.029972,-52.158257,135.738541,1.034127,-3.122280,-2.416307,-8.512777,18.996130,20.119162
877,398899818,51.317081,-51.638355,136.125626,0.870212,-3.134851,0.427524,-23.044556,29.517517,-15.602334
878,398916485,50.406849,-50.542591,136.181122,-0.222525,-1.267007,1.718096,-50.571690,42.047943,-49.692101
879,398933152,49.718239,-48.862408,135.660461,-0.675760,1.128811,1.538665,-63.690880,48.149708,-90.286507
880,398949819,49.811840,-46.675385,134.523392,-1.555145,2.375327,1.446706,-43.452972,48.671185,-129.813919
881,398966486,50.427486,-43.927887,133.162445,-2.455659,2.302594,2.776975,-19.660580,60.540195,-163.353851
882,398983153,51.033752,-40.696362,131.757202,-2.569703,1.991770,3.251866,-18.942734,73.371574,-189.600906
883,398999820,51.348522,-37.294102,130.395859,-2.774515,1.737742,3.476190,-31.064117,77.384163,-198.893021
884,399016487,51.285534,-33.727379,128.980377,-2.589535,0.502039,3.867876,-51.655037,78.705147,-210.305771
885,399033154,50.728924,-30.305557,127.417671,-2.586385,-0.861364,3.774796,-81.635681,66.312737,-209.643448
886,399049821,49.700397,-27.098957,125.654129,-2.477526,-1.582518,3.863951,-111.048531,50.713364,-207.291641
887,399066488,48.289848,-24.169775,123.671806,-2.062244,-1.473569,3.277251,-134.602814,33.305435,-203.047424
888,399083155,46.953209,-21.557760,121.406357,-0.961383,-0.462614,2.536891,-131.528839,12.022165,-200.250580
889,399099822,46.089169,-19.291740,118.843773,-0.027997,1.401648,2.122735,-104.019363,-12.095647,-197.856110
890,399116489,46.078506,-17.374956,116.104805,0.348348,2.954589,1.634933,-50.861496,-33.696198,-191.097702
891,399133156,46.844753,-15.739154,113.334488,0.332535,3.823103,1.472574,0.072416,-48.976521,-180.953003
892,399149823,48.253738,-14.351380,110.608498,0.276311,3.809197,1.416614,43.548038,-61.423065,-168.111420
893,399166490,50.028343,-13.188674,107.932579,-0.217420,3.221396,1.968044,69.730293,-73.373520,-154.846191
894,399183157,51.589287,-12.238940,105.430183,-1.288183,2.303565,3.320217,62.093510,-78.567879,-136.788071
895,399199824,52.446178,-11.557892,103.148041,-1.712688,2.132473,4.484418,24.674314,-81.516701,-114.742989
896,399216491,52.612053,-11.062528,100.992714,-1.237167,2.534169,4.355838,-13.911285,-83.609848,-100.814453
897,399233158,52.323608,-10.683659,98.925797,-0.861327,2.673036,3.450966,-39.194901,-83.772377,-92.304497
898,399249825,51.713997,-10.409990,96.983322,-0.244786,2.551720,2.555964,-56.400928,-81.246101,-83.544235
899,399266492,50.976879,-10.240385,95.161766,0.425468,2.611578,1.199023,-62.307842,-78.646133,-75.202675
900,399283159,50.392624,-10.152494,93.488434,0.771964,2.625150,0.209912,-51.317444,-74.138298,-66.785553
901,399299826,50.120995,-10.121317,91.975525,0.546641,2.661041,-0.380877,-30.763384,-68.539268,-58.669632
902,399316493,50.174995,-10.123301,90.639519,0.218315,2.546359,-0.879893,-9.335285,-61.679813,-50.582054
903,399333160,50.480644,-10.144898,89.475090,-0.149830,2.422953,-1.024921,7.556895,-54.783604,-43.017883
904,399349827,50.942646,-10.169683,88.489723,-0.483363,2.284064,-0.938407,18.805836,-46.999687,-35.812557
905,399366494,51.400677,-10.212560,87.678658,-0.629052,1.954090,-0.746767,20.383345,-39.936878,-28.140873
906,399383161,51.803726,-10.302583,87.004730,-0.676936,1.754107,-0.377523,18.492979,-35.547031,-20.598532
907,399399828,52.080444,-10.440168,86.448082,-0.921763,1.515682,-0.036207,12.099682,-31.961395,-13.872992
908,399416495,52.147438,-10.598883,85.980980,-0.977185,1.399442,0.143405,0.411309,-28.598528,-9.527916
909,399433162,52.053711,-10.803238,85.600029,-0.971008,1.162047,-0.108480,-8.360675,-26.252937,-4.243063
910,399449829,51.796188,-11.010596,85.278534,-0.856628,1.014435,-0.309026,-17.597219,-23.580595,-2.010475
911,399466496,51.534218,-11.212234,85.018860,-0.669259,1.083654,-0.658879,-17.218847,-20.491724,-0.117140
912,399483163,51.413158,-11.364925,84.829063,-0.822383,0.903390,-0.942019,-7.991158,-15.435101,0.087026
913,399499830,51.431831,-11.474197,84.739632,-0.704422,0.733511,-1.038468,1.557041,-9.191785,1.719823
914,399516497,51.584404,-11.526278,84.755722,-0.501422,0.827387,-1.068906,10.845478,-2.194062,2.910020
915,399533164,51.888039,-11.528339,84.870667,-0.416121,0.594675,-0.592760,21.092911,4.240786,4.154432
916,399549831,52.279369,-11.486149,85.061523,-0.394984,0.398974,-0.732345,27.259645,9.419566,4.770771
917,399566498,52.706356,-11.432987,85.356613,-0.434743,0.403106,-0.556075,30.632286,14.721085,7.907462
918,399583165,53.083138,-11.353744,85.757828,-0.508426,0.506861,-0.507065,28.856358,20.703375,10.316863
919,399599832,53.337570,-11.237819,86.274895,-0.683524,0.451182,-0.153192,22.836529,27.544449,12.521273
920,399616499,53.402607,-11.077808,86.898354,-1.151049,0.204063,0.135389,12.633115,34.194843,14.063387
921,399633166,53.265705,-10.877547,87.594917,-1.369148,-0.223407,0.364652,1.235571,39.101067,14.732201
922,399649833,52.903927,-10.683139,88.344833,-1.341142,-0.693820,0.917511,-11.801765,41.363499,17.095097
923,399666500,52.441238,-10.504480,89.078850,-0.673474,-0.958031,0.508621,-18.179432,39.938828,17.598949
924,399683167,52.020454,-10.346011,89.750420,-0.142295,-1.129667,0.239859,-16.470280,36.164711,16.632055
925,399699834,51.812134,-10.271761,90.370117,0.140100,-1.118096,0.134604,-4.361978,30.555302,18.933859
926,399716501,52.026665,-10.289613,90.927330,0.332444,-0.832835,-0.154245,20.322239,24.245394,21.009748
927,399733168,52.493298,-10.370328,91.438133,-0.092244,-0.664930,0.007914,34.977776,19.888990,22.163582
928,399749835,52.999847,-10.493710,91.950890,-0.643900,-0.432394,0.336251,37.447701,18.611870,24.086897
929,399766502,53.391304,-10.635425,92.502319,-0.783622,-0.111955,0.069930,31.035686,19.957592,26.173658
930,399783169,53.778145,-10.768716,93.083954,-0.433496,0.270919,-0.379498,31.172602,21.857231,26.672890
931,399799836,54.261917,-10.897735,93.718491,-0.080710,0.373449,-0.470950,37.661495,24.721207,28.113132
932,399816503,54.877617,-11.033601,94.383629,0.377368,0.223135,-0.356400,46.013905,26.210472,29.234833
933,399833170,55.549904,-11.176708,95.028358,0.520300,0.104585,-0.148518,49.269009,25.287500,28.586395
934,399849837,56.164948,-11.332110,95.667709,0.481147,-0.005632,0.182359,45.871658,24.917826,28.711920
935,399866504,56.654606,-11.499402,96.306389,0.419387,-0.101945,0.458449,38.447701,24.745625,29.019176
936,399883171,57.035778,-11.668681,96.931976,0.479581,-0.104389,0.342629,31.894129,24.241135,28.490253
937,399899838,57.341728,-11.822438,97.548813,0.563099,-0.135758,0.350181,27.378275,24.464195,27.264669
938,399916505,57.600365,-11.971251,98.143654,0.686135,-0.205463,0.250968,24.363592,23.652002,26.183796
939,399933172,57.807995,-12.102701,98.706688,0.569890,-0.291174,0.080923,20.994669,22.721886,24.197058
940,399949839,57.996933,-12.225227,99.252258,0.495502,-0.349941,-0.068382,19.725994,22.208582,23.107504
941,399966506,58.191765,-12.355032,99.777451,0.476139,-0.323206,-0.064304,19.889874,21.026365,22.761274
942,399983173,58.398598,-12.498449,100.270584,0.486909,-0.270543,-0.158075,20.272038,19.065918,22.384981
943,399999840,58.623501,-12.638667,100.701340,0.571743,-0.217483,-0.243639,20.612957,16.118935,20.228113
944,400016507,58.853058,-12.780084,101.069504,0.349642,-0.242392,-0.195003,20.129730,13.017305,18.314001
945,400033174,59.056644,-12.903514,101.382011,-0.017194,-0.346352,-0.009260,17.879417,10.844615,15.651824
946,400049841,59.167908,-13.006842,101.650078,-0.198398,-0.425350,0.232350,11.779958,9.270921,13.245864
947,400066508,59.147842,-13.102224,101.868073,-0.162022,-0.430730,0.052337,3.247084,7.007057,11.326974
948,400083175,59.042839,-13.192410,102.030022,0.036385,-0.254502,-0.197653,-2.593312,4.338774,9.384451
949,400099842,58.913895,-13.269248,102.142212,0.085861,-0.186676,-0.304422,-4.701225,2.237699,7.209394
950,400116509,58.802773,-13.338029,102.213188,0.058491,-0.169314,-0.412215,-4.190482,0.414638,5.558553
951,400133176,58.727840,-13.391437,102.246346,0.030012,-0.180178,-0.341502,-2.538756,-1.006989,3.627098
952,400149843,58.658890,-13.424874,102.248390,-0.062858,-0.280256,-0.231010,-2.612111,-1.940789,1.658992
953,400166510,58.593960,-13.454587,102.230972,-0.108142,-0.395702,-0.111024,-2.642360,-2.797637,0.876729
954,400183177,58.500938,-13.488544,102.196724,-0.126978,-0.445572,-0.022569,-4.564644,-3.769383,0.580570
955,400199844,58.368038,-13.521818,102.149933,-0.178244,-0.413177,0.073597,-7.135109,-4.375341,0.156923
956,400216511,58.252880,-13.565538,102.100090,-0.044266,-0.354234,-0.025131,-6.115291,-4.855632,0.591199
957,400233178,58.174175,-13.615695,102.041031,0.065555,-0.248505,-0.142321,-4.061112,-5.516593,0.631539
958,400249845,58.127880,-13.670807,101.981705,0.110254,-0.210413,-0.148446,-2.123318,-5.687492,0.872016
959,400266512,58.119514,-13.726572,101.921410,0.039797,-0.156288,-0.183832,0.135587,-5.757325,0.873092
960,400283179,58.156494,-13.788379,101.872467,-0.051771,-0.135205,-0.175070,3.013725,-5.385609,1.532709
961,400299846,58.209831,-13.853625,101.841888,-0.163173,-0.113562,-0.074536,4.254635,-4.582497,2.277257
962,400316513,58.235287,-13.912529,101.835823,-0.316008,-0.169903,0.044413,2.932558,-3.168560,2.707820
963,400333180,58.197842,-13.970507,101.846657,-0.258294,-0.188281,-0.004456,-0.596046,-2.300597,3.179209
964,400349847,58.144131,-14.030492,101.857315,-0.060419,-0.060476,-0.266067,-1.576052,-2.375924,3.275448
965,400366514,58.137695,-14.091919,101.863274,0.001965,0.037700,-0.432774,1.191573,-2.658022,3.203720
966,400383181,58.214584,-14.151714,101.867546,-0.072055,0.091504,-0.455070,6.166431,-2.685876,3.069523
967,400399848,58.359112,-14.196084,101.882317,-0.251900,0.011202,-0.319142,10.378443,-1.674303,2.606548
968,400416515,58.474895,-14.207659,101.912148,-0.473075,-0.257506,0.039411,8.876667,0.109373,1.389624
969,400433182,58.530582,-14.223514,101.955559,-0.407437,-0.444154,0.175900,5.470328,0.651363,2.021233
970,400449849,58.555103,-14.259350,101.986450,-0.104897,-0.418299,0.211265,3.414128,-0.595034,2.662242
971,400466516,58.573830,-14.314970,101.986542,0.040180,-0.274598,0.172299,2.611311,-2.743569,2.742384
972,400483183,58.596363,-14.399388,101.975372,0.010785,-0.294715,0.128009,2.671591,-4.201111,3.877360
973,400499850,58.608482,-14.489020,101.964241,-0.004301,-0.231364,0.087746,2.046628,-4.361395,4.147433
974,400516517,58.627407,-14.571621,101.973946,-0.016422,-0.188010,0.012923,2.767830,-3.105898,4.419670
975,400533184,58.674282,-14.656162,102.014931,-0.008764,-0.168281,-0.052090,4.919272,-1.614804,5.464758
976,400549851,58.719418,-14.732390,102.067375,0.128357,-0.124009,-0.051912,4.991768,-0.783352,5.385102
977,400566518,58.762733,-14.790505,102.114830,0.074035,-0.111970,-0.033849,4.811673,-0.463347,4.305130
978,400583185,58.792690,-14.839486,102.165749,-0.054726,-0.210182,0.106369,4.064179,-0.006429,3.939676
979,400599852,58.755310,-14.882334,102.215012,-0.162424,-0.360355,0.258847,0.001530,0.102508,3.575975
980,400616519,58.649853,-14.940221,102.250710,-0.035325,-0.456770,0.272829,-4.292945,-1.046791,3.940022
981,400633186,58.530704,-15.018453,102.251137,0.117826,-0.330908,0.168371,-5.657270,-3.435112,3.918020
982,400649853,58.413792,-15.113500,102.207565,0.106423,-0.232129,0.014706,-6.209941,-6.146614,3.440305
983,400666520,58.328163,-15.223812,102.124962,0.043779,-0.124626,-0.143363,-4.951077,-8.556399,3.026417
984,400683187,58.310692,-15.347865,102.011765,-0.008164,-0.053638,-0.148079,-1.353824,-10.496256,2.793931
985,400699854,58.342785,-15.477162,101.874939,-0.129812,-0.065490,-0.056611,1.230095,-11.819856,2.346630
986,400716521,58.402523,-15.610352,101.723328,-0.223595,-0.180679,-0.072592,2.630342,-12.664896,2.109546
987,400733188,58.433353,-15.763555,101.572266,-0.199477,-0.288053,0.132155,0.882569,-13.259909,3.161935
988,400749855,58.453892,-15.940744,101.424294,-0.094457,-0.206877,0.021363,0.290262,-13.853790,4.491516
989,400766522,58.504520,-16.140118,101.289818,-0.078445,-0.111428,0.023186,2.290910,-13.876752,6.046170
990,400783189,58.595707,-16.359001,101.199921,-0.315062,-0.061306,-0.007315,5.444553,-12.282027,8.404179
991,400799856,58.723343,-16.594437,101.209244,-0.577701,-0.036579,0.044370,9.297219,-7.903011,12.246743
992,400816523,58.884556,-16.885323,101.361183,-0.569643,0.159330,0.028649,13.778028,-2.582175,19.355959
993,400833190,59.175632,-17.244493,101.681358,-0.426771,0.668290,-0.234068,24.578609,3.647119,27.830042
994,400849857,59.654087,-17.688261,102.196594,-0.415529,1.103442,-0.118111,39.461304,10.832438,37.826565
995,400866524,60.101540,-18.212164,102.939575,-0.710473,1.832642,0.372982,42.061539,19.904362,48.369534
996,400883191,60.329117,-18.795052,103.930458,-0.784781,2.738489,0.803091,33.998230,30.563076,58.250484
997,400899858,60.277637,-19.475267,105.161293,-0.903929,3.715579,0.753389,22.593920,39.396469,69.898163
998,400916525,59.959137,-20.291956,106.590630,-1.156998,4.442723,1.307170,11.540044,44.536976,82.536331
999,400933192,59.214317,-21.243357,108.188980,-1.832584,4.877698,1.916070,-9.198705,47.468334,94.477844
1000,400949859,57.916630,-22.304571,110.005356,-3.022069,4.877643,2.366552,-35.939648,52.198845,106.949631
1001,400966526,55.974621,-23.406687,112.078415,-3.464354,4.769872,2.579073,-66.705048,59.070347,117.765823
1002,400983193,53.661076,-24.531824,114.368462,-2.567410,5.142660,1.970420,-81.482094,62.817081,127.331146
1003,400999860,51.083744,-25.676619,116.820023,-1.301735,5.440468,1.567966,-90.709763,62.673515,135.522232
1004,401016527,48.169975,-26.879913,119.439140,-0.808053,5.619967,2.043286,-103.708557,59.718460,146.067703
1005,401033194,44.950687,-28.112831,122.260757,-1.206940,5.719574,2.382841,-113.425117,57.329960,156.749954
1006,401049861,41.428848,-29.208311,125.317604,-1.778373,5.175565,2.642051,-121.749397,61.398067,162.096176
1007,401066528,37.490822,-30.010418,128.542999,-1.890491,4.183484,2.976528,-139.045517,68.963715,160.261703
1008,401083195,33.123161,-30.322458,131.705536,-1.427986,4.347468,3.112845,-165.071259,78.739426,144.480164
1009,401099862,28.615181,-30.188969,134.685898,-1.120620,4.467257,3.452346,-178.728485,85.340385,128.262589
1010,401116529,24.414503,-29.687864,137.398132,-1.251451,2.201732,4.282239,-169.163651,89.084183,112.562111
1011,401133196,20.687626,-29.006739,139.766876,-1.161309,-0.811253,5.062417,-152.294022,84.483932,98.544083
1012,401149863,16.970705,-28.230503,141.666107,-1.560460,-1.895690,5.337605,-166.773285,75.603432,79.469902
1013,401166530,13.265576,-27.446293,142.997833,-2.346515,-1.238951,4.519100,-183.346313,63.091709,55.777966
1014,401183197,10.251374,-26.757303,143.767227,-2.353520,-1.853516,3.219172,-158.184799,48.091053,31.662617
1015,401199864,7.891410,-26.186132,144.029984,-2.526165,-3.393187,1.647907,-132.947556,35.313946,8.401432
1016,401216531,5.589845,-25.627913,143.857971,-2.272068,-2.988260,0.004201,-140.997055,31.420811,-13.264508
1017,401233198,3.212231,-25.023024,143.166183,-1.157270,-1.734985,-0.645376,-158.821228,32.557819,-40.292698
1018,401249865,0.964532,-24.292744,141.878174,-0.032932,-2.425778,-0.559474,-165.521820,40.477009,-71.871552
1019,401266532,-0.902624,-23.501329,139.896271,1.277659,-3.925445,-0.920077,-158.630432,46.665367,-108.820816
1020,401283199,-2.121719,-22.788933,137.240295,2.498468,-5.319978,-1.854745,-134.231842,45.814289,-145.415863
1021,401299866,-2.412077,-22.213331,134.006058,3.967357,-6.646157,-3.545941,-90.165962,40.792038,-177.827393
1022,401316533,-1.885366,-21.827816,130.475723,4.369641,-9.400527,-5.194935,-46.331654,29.635618,-195.414139
1023,401333200,-0.328395,-21.730227,127.143333,4.369088,-10.773682,-6.476181,20.678482,8.562644,-185.581589
1024,401349867,1.831059,-21.985390,124.447182,3.783118,-9.788586,-7.727339,70.764099,-18.199850,-149.998947
1025,401366534,4.264727,-22.680721,122.698929,4.977036,-7.340932,-8.006269,107.577301,-47.788208,-94.753601
1026,401383201,7.087158,-23.947823,122.093513,5.320598,-5.263159,-7.710401,156.385773,-79.966202,-25.764101
1027,401399868,9.945943,-25.783575,122.559799,5.185079,-4.484146,-7.678513,184.704575,-106.221619,41.330696
1028,401416535,12.360235,-27.904253,123.840744,4.702129,-4.481395,-7.395519,180.975281,-112.645035,91.811707
1029,401433202,14.139972,-30.071848,125.734634,3.334754,-5.516272,-7.228520,163.270203,-104.897797,126.483490
1030,401449869,14.655081,-32.201267,128.143204,2.999770,-7.035717,-6.223039,107.052727,-94.094254,151.498489
1031,401466536,14.438450,-34.241135,130.907974,4.035504,-6.867278,-5.514144,79.303490,-84.728394,164.991562
1032,401483203,13.661602,-36.312435,133.907547,4.816623,-8.189107,-4.014986,58.738323,-86.029564,172.632904
1033,401499870,12.274037,-38.470066,137.028137,5.201496,-9.398235,-4.127418,31.843958,-93.940254,173.957413
1034,401516537,10.660167,-40.582638,139.999100,5.169970,-8.897058,-4.981684,17.989468,-98.094666,159.907516
1035,401533204,9.194453,-42.715828,142.652359,5.529890,-8.677826,-5.934087,19.192249,-106.813545,139.214386
1036,401549871,8.407422,-44.941929,144.684357,5.473394,-6.920792,-6.322063,38.508610,-119.824677,107.351646
1037,401566538,8.321224,-47.370628,145.967545,4.119173,-3.866027,-5.317450,51.627792,-137.743378,73.977791
1038,401583205,9.043571,-49.854198,146.489288,2.767771,-3.041872,-3.880825,68.081360,-145.536148,42.987556
1039,401599872,10.747349,-52.151745,145.910339,1.567532,-1.574277,-2.266795,76.473221,-140.925964,2.207829
1040,401616539,14.033048,-54.096268,144.042130,0.676400,-0.996333,-0.700598,108.709656,-129.749969,-40.595753
1041,401633206,19.263353,-55.540257,140.897049,-1.513773,0.415396,1.591220,160.811569,-115.511353,-79.258308
1042,401649873,26.041214,-56.378349,136.701996,-2.379595,2.818644,3.728113,199.326569,-102.006851,-110.544891
1043,401666540,33.939774,-56.592590,131.993713,-4.086614,3.767991,5.168592,239.616913,-90.427429,-128.528641
1044,401683207,43.016273,-55.969231,126.562981,-4.700401,2.700759,5.811863,274.768250,-84.587990,-164.694931
1045,401699874,51.280499,-54.690281,121.189156,-7.009103,-1.988019,6.524403,231.890793,-83.568001,-180.767822
1046,401716541,57.065746,-52.944672,116.413513,-8.380128,-2.998137,8.084743,117.099281,-77.095741,-183.658142
1047,401733208,60.253395,-51.038864,112.214996,-7.727327,-1.247572,7.898558,-5.924227,-74.222656,-178.053802
1048,401749875,61.815502,-49.167290,108.334641,-6.400302,2.131420,6.228989,-83.564369,-77.457123,-170.284042
1049,401766542,62.481846,-47.536446,104.597313,-4.778808,4.177201,4.164487,-126.231148,-87.214851,-155.873291
1050,401783209,62.864189,-46.174549,100.849396,-3.636680,5.544300,2.135239,-139.770111,-100.263763,-142.952545
1051,401799876,62.934204,-44.930889,97.170197,-2.714043,5.543004,1.950711,-152.009079,-104.765923,-136.638062
1052,401816543,62.688568,-43.903538,93.541779,-2.332161,5.824237,1.883979,-165.701355,-111.293976,-125.701218
1053,401833210,61.988148,-43.121445,89.871994,-1.365447,6.937362,1.380689,-192.204483,-120.784164,-115.547707
1054,401849877,61.630390,-42.590096,86.318535,0.160152,8.464032,-0.675627,-165.049164,-123.816811,-101.817337
1055,401866544,61.790112,-42.323280,82.833809,0.739110,7.307244,-0.046103,-130.114304,-129.347580,-87.122826
1056,401883211,62.151936,-42.260090,79.535492,0.901690,7.448981,0.219125,-110.005638,-128.520889,-72.090630
1057,401899878,62.452579,-42.415089,76.707710,1.493841,8.196643,0.701784,-94.763245,-116.427734,-50.046463
1058,401916545,62.834175,-42.776886,74.498062,2.487774,8.949380,1.276826,-65.362961,-97.697418,-25.590784
1059,401933212,63.255180,-43.300690,73.062599,3.181142,9.653756,2.476191,-32.039860,-71.375580,-0.580729
1060,401949879,63.176189,-43.959793,72.630005,2.838005,8.917555,4.015420,-21.158472,-35.587147,26.734219
1061,401966546,62.135277,-44.716808,73.309128,3.021740,8.542766,4.858070,-32.475159,4.056397,53.589149
1062,401983213,60.328247,-45.587574,75.083206,3.517947,8.426481,4.647919,-31.442953,39.711514,81.738548
1063,401999880,57.968655,-46.569725,77.919701,2.957534,7.856080,4.756976,-17.447384,70.210358,110.894722
1064,402016547,54.924023,-47.611153,81.833588,1.556389,6.744141,4.550322,-9.102835,97.806313,140.154999
1065,402033214,51.031197,-48.619473,86.721107,0.332642,5.771380,4.297276,-13.619322,119.007484,165.853775
1066,402049881,46.500153,-49.441101,92.360466,-0.765108,5.114611,3.976856,-14.706162,133.471741,182.932327
1067,402066548,41.595852,-49.950718,98.437080,-1.838993,4.756552,3.862915,-14.500091,141.125031,190.387299
1068,402083215,36.621418,-50.100208,104.695068,-3.310271,4.034903,3.914895,-8.994020,144.340240,192.459854
1069,402099882,31.394070,-49.795689,110.937744,-5.033226,3.393484,3.940705,-25.171141,149.087357,189.223999
1070,402116549,25.959227,-48.980858,117.010132,-6.216323,3.669073,4.102370,-47.726124,155.837753,184.284775
1071,402133216,20.732296,-47.598877,122.695839,-6.480709,4.282502,3.586884,-57.153545,165.234009,175.251007
1072,402149883,16.296148,-45.877731,127.772415,-5.922090,2.929875,2.593715,-42.570580,163.406616,164.887894
1073,402166550,12.480168,-44.033009,131.965912,-5.957097,0.735039,2.293367,-49.415596,150.708359,144.721329
1074,402183217,8.899057,-42.176079,135.123352,-5.994166,-0.448530,1.688543,-83.662964,134.442581,115.038620
1075,402199884,5.576402,-40.407387,137.478165,-5.596210,-1.229481,1.799980,-104.396782,117.992722,91.763908
1076,402216551,2.679601,-38.782738,139.031555,-4.381321,-0.962558,1.499114,-112.698586,101.765739,64.470467
1077,402233218,0.155190,-37.251080,139.601273,-3.460806,-0.678948,1.328382,-128.723831,91.926727,24.533361
1078,402249885,-1.937081,-35.781200,139.119537,-2.784886,-0.260321,-0.307455,-141.063263,87.943237,-21.944857
1079,402266552,-3.877749,-34.314686,137.762024,-2.389533,-1.683167,-1.179767,-161.553070,90.667046,-62.194626
1080,402283219,-5.840472,-32.875896,135.579071,-1.140385,-3.850960,-1.408972,-188.594452,94.663483,-101.432648
1081,402299886,-7.097546,-31.620378,132.560883,0.937793,-4.357869,-2.413881,-170.446854,91.487846,-143.700409
1082,402316553,-6.399901,-30.684076,129.039536,2.963089,-3.752696,-5.644580,-65.896820,76.386299,-172.935715
1083,402333220,-4.239326,-29.910597,125.276665,3.596670,-6.067282,-7.405173,17.224255,63.606014,-189.771469
1084,402349887,-1.856530,-29.069675,121.631889,2.616982,-8.138242,-8.278019,36.773109,59.793655,-187.390884
1085,402366554,1.491170,-28.185699,118.120804,3.842372,-9.419762,-8.790580,101.338921,52.874722,-184.749557
1086,402383221,6.911253,-27.356443,115.152046,6.247880,-8.825329,-10.215422,243.579987,37.281479,-160.889816
1087,402399888,13.493918,-26.605627,113.137451,6.398626,-8.040888,-10.242645,341.507416,24.415472,-114.098618
1088,402416555,21.108480,-26.190763,112.038521,5.178553,-5.675599,-9.781767,428.971802,5.303829,-63.914211
1089,402433222,29.121239,-26.276466,111.722267,2.334566,-4.633747,-7.901820,473.810669,-12.829168,-13.332960
1090,402449889,36.365784,-26.822432,111.847412,1.750629,-4.305947,-6.274811,439.457123,-24.902199,23.287743
1091,402466556,42.274849,-27.815334,112.144508,0.777216,-4.254165,-5.231587,364.150360,-37.050667,49.939331
1092,402483223,46.937294,-29.348839,112.553314,0.942612,-5.667721,-3.421419,292.891296,-51.394814,79.895691
1093,402499890,50.074871,-31.437216,113.134537,1.733096,-7.328431,-1.586402,207.297501,-61.507816,113.748077
1094,402516557,50.995178,-33.957008,114.101578,3.233339,-8.305944,-0.772926,87.960785,-59.439102,147.731308
1095,402533224,49.118389,-36.597282,115.818245,4.434366,-8.844456,-0.710283,-51.687008,-38.297604,175.444214
1096,402549891,44.611389,-39.094402,118.657928,5.829274,-7.938474,-0.797951,-164.408005,-5.347131,201.360611
1097,402566558,38.220177,-41.246250,122.568100,6.633914,-5.922310,-1.420233,-230.612549,20.647678,219.905807
1098,402583225,31.340469,-42.956306,127.284035,6.658340,-4.401694,-1.385096,-221.543823,34.316860,231.002823
1099,402599892,24.673492,-44.129738,132.386353,4.806859,-4.692215,-1.435266,-187.611450,40.816494,229.001404
1100,402616559,17.909775,-44.613083,137.583786,3.548317,-6.227124,-1.372185,-186.274414,52.636074,218.249573
1101,402633226,11.401360,-44.460709,142.441833,3.779657,-4.821697,-2.097355,-184.659485,60.071091,198.719849
1102,402649893,6.436546,-43.977631,146.613403,4.691928,-2.685934,-1.238014,-122.007317,55.069378,172.725067
1103,402666560,3.803847,-43.457436,149.826981,3.789553,-1.162224,0.290093,-23.451925,42.132584,136.008759
1104,402683227,3.041780,-42.910889,152.103531,1.852732,-0.358792,0.546791,48.974644,37.281471,97.453468
1105,402699894,3.463176,-42.254173,153.654617,0.150692,-1.172116,0.884957,89.464897,41.832058,66.174980
1106,402716561,4.780824,-41.564541,154.421127,-0.967816,-0.902521,0.856358,110.975197,42.344223,31.170715
1107,402733228,7.233260,-40.874447,154.270935,-1.819313,-0.895586,1.031167,142.396744,39.094650,-11.054384
1108,402749895,10.437908,-40.217419,153.176636,-1.326522,-0.545741,3.395629,150.778732,29.926996,-55.320923
1109,402766562,14.082872,-39.667652,151.299606,-2.152763,1.830105,4.373002,147.568573,12.538465,-91.330879
1110,402783229,18.083572,-39.020802,148.780899,-3.801994,2.498205,3.724890,145.412903,3.567108,-122.987595
1111,402799896,21.677044,-38.065258,145.893738,-5.777285,0.250169,3.636115,108.860657,6.512777,-146.835129
1112,402816563,23.770977,-36.701157,143.103165,-6.781806,-0.459811,4.410835,25.183886,22.788631,-154.243134
1113,402833230,24.559847,-35.023788,140.543472,-6.033799,2.407877,4.035113,-41.430302,39.581997,-154.670349
1114,402849897,24.710436,-33.196980,138.206100,-4.269639,4.605857,2.998570,-68.387924,49.969051,-151.160538
1115,402866564,24.838511,-31.520552,135.988770,-2.363380,5.585049,2.306037,-62.279305,42.998383,-144.134155
1116,402883231,25.230169,-30.109316,133.699982,-1.640425,4.897456,1.784452,-45.584034,25.594725,-142.655212
1117,402899898,25.612568,-28.984222,131.379135,-2.128148,3.247016,1.769819,-44.436649,7.766625,-138.369324
1118,402916565,25.769415,-28.157251,129.052567,-2.027020,2.765514,1.482965,-56.041000,-9.617181,-131.974976
1119,402933232,25.781954,-27.662525,126.728043,-1.203290,2.679068,1.295542,-63.214233,-28.034174,-123.892609
1120,402949899,25.880095,-27.581850,124.430473,-0.233900,2.904805,1.121805,-56.695309,-50.020107,-112.052391
1121,402966566,26.242174,-27.900785,122.150803,0.077958,2.761602,0.978139,-40.598766,-71.521912,-100.357346
1122,402983233,26.848204,-28.540342,119.935707,-0.175907,2.568004,0.909149,-25.123814,-87.800797,-87.633537
1123,402999900,27.552074,-29.396393,117.828621,-0.483190,2.209128,0.852062,-17.627489,-97.370117,-74.926155
1124,403016567,28.243305,-30.397573,115.861023,-0.524423,2.190024,0.796913,-15.986037,-102.093941,-62.374245
1125,403033234,28.957848,-31.492975,114.052979,-0.111132,2.667279,0.679995,-11.517368,-103.350349,-50.256729
1126,403049901,29.877192,-32.629391,112.405556,0.325408,3.069179,0.456562,4.094548,-101.635178,-39.515945
1127,403066568,31.091511,-33.758720,110.927872,0.408690,2.973590,0.445723,25.735399,-97.116882,-29.607296
1128,403083235,32.480236,-34.868484,109.651871,0.167167,2.603590,0.528220,41.594215,-90.982048,-18.728613
