sep=,
DeviceTag:,DOT5
FirmwareVersion:,3.0.0
AppVersion:,2023.6.0
SyncStatus:,Synced
OutputRate:,60Hz
FilterProfile:,Dynamic
Measurement Mode:,Custom modes - custom mode1
StartTime: ,2026-06-01_12:05:10_541 GMT+2
© Movella Technologies B. V. 2005-2026

PacketCounter,SampleTimeFine,Euler_X,Euler_Y,Euler_Z,FreeAcc_X,FreeAcc_Y,FreeAcc_Z,Gyr_X,Gyr_Y,Gyr_Z
1,331776857,-53.777725,-9.897972,-127.497002,-0.178815,-0.966949,0.597299,27.369551,-3.349499,14.329976
2,331793524,-53.241795,-9.702853,-127.434799,-0.063561,-1.082031,0.380723,33.084129,1.460270,12.211312
3,331810191,-52.719730,-9.514425,-127.426727,-0.036511,-1.075073,0.223174,31.695978,3.878975,9.930409
4,331826858,-52.267014,-9.358787,-127.452545,0.022062,-1.036977,-0.019747,27.198399,4.354088,7.096344
5,331843525,-51.878510,-9.239455,-127.482544,-0.019668,-0.858805,-0.181033,23.307981,3.256937,5.177893
6,331860192,-51.498829,-9.153536,-127.525414,-0.012044,-0.801723,-0.214305,22.656813,2.643395,3.094052
7,331876859,-51.050026,-9.080402,-127.590698,0.103373,-0.732429,-0.161283,26.591818,3.219147,1.629055
8,331893526,-50.483097,-9.005477,-127.684639,0.209387,-0.712806,-0.075632,33.412571,4.613551,0.587500
9,331910193,-49.806568,-8.922265,-127.796204,0.313643,-0.672822,-0.142771,39.830341,5.733993,0.223094
10,331926860,-49.058315,-8.845108,-127.896439,0.425752,-0.577873,-0.272017,44.244595,4.986898,0.280070
11,331943527,-48.298931,-8.788651,-127.975655,0.545929,-0.519834,-0.311092,45.111492,3.223029,0.072427
12,331960194,-47.554028,-8.763122,-128.039032,0.688067,-0.441522,-0.169446,44.387932,1.277116,-0.752135
13,331976861,-46.810307,-8.768592,-128.106140,0.700096,-0.360516,0.142249,44.282494,0.157538,-2.316095
14,331993528,-46.027546,-8.783510,-128.187653,0.509096,-0.291573,0.430828,46.488235,0.348252,-3.354227
15,332010195,-45.178524,-8.793818,-128.288055,0.401383,-0.236060,0.541802,50.288906,1.285788,-3.980569
16,332026862,-44.263004,-8.791238,-128.401459,0.313799,-0.134097,0.630245,54.158127,2.306428,-4.041956
17,332043529,-43.347618,-8.769548,-128.523315,0.361925,-0.287361,0.676291,54.072117,3.406223,-3.688485
18,332060196,-42.511677,-8.710728,-128.624969,0.443131,-0.354040,0.609056,49.494503,4.156574,-1.385223
19,332076863,-41.814972,-8.622109,-128.716431,0.666359,-0.468682,0.349055,41.236317,5.051758,0.170422
20,332093530,-41.326687,-8.514077,-128.788651,0.785904,-0.438538,0.116055,28.910727,5.163825,1.716895
21,332110197,-41.038803,-8.401793,-128.850632,0.848100,-0.476696,-0.113003,16.982639,4.961550,2.289425
22,332126864,-40.911346,-8.285998,-128.906219,0.871437,-0.429533,-0.308022,7.418561,4.877703,2.685422
23,332143531,-40.870029,-8.155263,-128.976440,0.791432,-0.248317,-0.169518,2.128025,6.128115,2.602462
24,332160198,-40.808224,-8.008348,-129.077576,0.622054,0.003663,-0.024791,3.104766,8.063334,1.839050
25,332176865,-40.664719,-7.835517,-129.216187,0.449032,0.151386,0.088704,7.710203,10.700705,1.140387
26,332193532,-40.477962,-7.660839,-129.377808,0.501172,0.241966,0.134775,10.144796,11.676705,0.133897
27,332210199,-40.356514,-7.510573,-129.534149,0.407259,0.246231,0.143752,6.293485,10.358657,-0.621300
28,332226866,-40.347225,-7.398710,-129.657562,0.311523,0.231758,0.215080,-0.157352,7.331988,-0.638128
29,332243533,-40.458145,-7.320270,-129.717422,0.157757,0.148441,0.284309,-6.871363,3.357422,0.946908
30,332260200,-40.663685,-7.257294,-129.688034,0.018188,0.080676,0.313648,-11.865052,-0.802754,4.394034
31,332276867,-40.895908,-7.193446,-129.563751,-0.041106,-0.000499,0.187966,-12.749591,-4.468882,8.713403
32,332293534,-41.075077,-7.112711,-129.363953,0.043532,-0.096479,-0.017790,-9.012414,-6.682142,12.763249
33,332310201,-41.166138,-7.021203,-129.118027,0.080275,-0.288256,-0.282987,-3.404009,-8.030128,15.247969
34,332326868,-41.162609,-6.920401,-128.875900,0.132603,-0.483648,-0.457983,2.219682,-7.476790,15.446541
35,332343535,-41.088387,-6.813388,-128.670914,0.207616,-0.539760,-0.548830,6.167167,-5.730155,14.028518
36,332360202,-40.985149,-6.721785,-128.549072,0.246662,-0.496437,-0.389800,7.296377,-3.154577,9.691460
37,332376869,-40.887417,-6.666476,-128.520966,0.193440,-0.518105,-0.059622,6.301910,-1.126921,4.051859
38,332393536,-40.821186,-6.642335,-128.574768,-0.035839,-0.503553,0.324935,3.839313,0.656998,-0.866939
39,332410203,-40.783566,-6.636877,-128.680313,-0.326196,-0.482324,0.716257,1.763659,1.822939,-3.935033
40,332426870,-40.766411,-6.647915,-128.794571,-0.632816,-0.507034,0.822546,0.474008,1.411049,-4.975460
41,332443537,-40.779850,-6.665505,-128.864410,-0.605965,-0.557373,0.683581,-1.053297,-0.615179,-3.224907
42,332460204,-40.866249,-6.676559,-128.858734,-0.272037,-0.554418,0.593752,-4.903898,-3.255733,0.441249
43,332476871,-41.018421,-6.693675,-128.802460,0.083830,-0.485941,0.366624,-8.498003,-5.503608,2.479919
44,332493538,-41.192886,-6.701853,-128.719009,0.245908,-0.341536,0.135260,-9.645913,-6.173829,4.048287
45,332510205,-41.315029,-6.700697,-128.638763,0.295072,-0.164515,-0.062481,-6.529408,-5.634449,4.262575
46,332526872,-41.336273,-6.680774,-128.595093,0.257233,0.011630,-0.138387,-0.732498,-3.355789,3.367231
47,332543539,-41.247002,-6.642526,-128.595871,0.147442,0.183685,0.055499,5.587072,-0.778793,2.098506
48,332560206,-41.083122,-6.586353,-128.643860,0.151586,0.205090,0.219555,9.737151,1.887163,0.684865
49,332576873,-40.938076,-6.506793,-128.716278,0.083834,0.251871,0.570240,8.442263,3.902192,0.492347
50,332593540,-40.834892,-6.411001,-128.804352,-0.126355,0.323037,0.811192,5.833134,5.246782,0.408965
51,332610207,-40.734241,-6.272603,-128.885086,-0.444621,0.379882,0.963258,5.740942,6.898341,2.395435
52,332626874,-40.570480,-6.070638,-128.933365,-0.784632,0.434828,1.139105,9.752203,8.536687,6.323454
53,332643541,-40.301373,-5.814600,-128.937347,-0.844798,0.185189,1.170569,16.363178,9.312377,10.398932
54,332660208,-39.982571,-5.521215,-128.887619,-0.585121,-0.159921,1.025752,19.665277,9.011215,14.232581
55,332676875,-39.690777,-5.212133,-128.795441,-0.481062,-0.381213,0.850525,18.269604,8.182466,16.723886
56,332693542,-39.437534,-4.904643,-128.673889,-0.487624,-0.428209,0.671866,16.082050,7.067308,17.970953
57,332710209,-39.219097,-4.615550,-128.537949,-0.411039,-0.340616,0.351280,14.028582,5.738837,17.901472
58,332726876,-39.030895,-4.348329,-128.405075,-0.137362,-0.217291,0.161654,12.160463,4.896637,16.902519
59,332743543,-38.913181,-4.108541,-128.279175,0.502817,0.003119,0.132551,7.864881,3.921174,15.526340
60,332760210,-38.932320,-3.889814,-128.151077,1.137060,0.312230,0.161055,-0.367940,2.868516,14.828119
61,332776877,-39.086697,-3.660924,-127.993225,1.273442,0.875085,0.144871,-8.396354,2.193148,16.606161
62,332793544,-39.259209,-3.372077,-127.780495,1.275259,1.492961,0.058432,-9.325998,2.859017,21.433767
63,332810211,-39.361038,-2.994485,-127.486099,1.329040,2.022249,-0.066196,-4.888019,3.822879,28.601124
64,332826878,-39.390938,-2.513476,-127.085632,1.508803,2.420480,-0.163815,-0.396884,4.546565,37.457279
65,332843545,-39.350616,-1.953569,-126.570602,1.556952,2.596931,-0.121860,3.867117,3.842375,45.763016
66,332860212,-39.207371,-1.331752,-125.942078,1.301481,2.450622,0.157876,9.920740,2.471210,53.372066
67,332876879,-38.879543,-0.665993,-125.230278,0.632534,1.922804,0.574680,20.659647,1.579832,58.887733
68,332893546,-38.337929,0.063172,-124.452248,0.139769,1.198660,0.821323,32.991257,2.511672,64.329926
69,332910213,-37.668262,0.850247,-123.623711,-0.170647,0.636728,0.761188,40.034374,4.054895,68.799568
70,332926880,-36.941517,1.667993,-122.766327,-0.733203,0.073932,1.138737,42.725651,5.308227,71.193214
71,332943547,-36.208149,2.512348,-121.892334,-1.067563,-0.454730,1.313683,42.342983,6.909513,72.823006
72,332960214,-35.597343,3.345496,-120.988281,-0.902116,-0.873694,0.978851,34.132565,6.176090,73.748215
73,332976881,-35.203350,4.124352,-120.051216,-0.496247,-1.075238,0.575839,20.234659,3.050106,73.357544
74,332993548,-35.045071,4.837391,-119.075020,-0.031349,-0.669017,0.142917,5.179927,-1.146497,72.937981
75,333010215,-34.993286,5.490752,-118.048210,0.534427,0.291301,-0.029484,-2.180873,-5.645094,73.308281
76,333026882,-34.852936,6.164137,-116.923576,1.170289,1.829397,0.270937,1.827653,-7.843024,78.729706
77,333043549,-34.387318,6.983356,-115.632332,1.810147,3.928261,0.543111,19.323980,-5.820334,91.813217
78,333060216,-33.403893,7.984357,-114.130684,2.336557,5.598382,0.449574,47.525215,-2.519556,108.181595
79,333076883,-31.981743,9.196664,-112.416588,2.381068,6.552979,0.007106,70.220047,3.722443,125.387398
80,333093550,-30.335407,10.502819,-110.555229,2.480170,6.584064,-0.667712,79.929070,7.551723,135.202820
81,333110217,-28.794933,11.751758,-108.611488,3.244205,6.517961,-1.079619,70.178490,6.120942,136.977875
82,333126884,-27.628244,12.784283,-106.707809,3.992899,6.429808,-0.977293,45.991478,-0.780150,128.086792
83,333143551,-27.008102,13.504922,-104.951012,4.140626,6.335746,-0.764957,13.500451,-11.313613,111.462967
84,333160218,-26.983961,13.857882,-103.412575,3.395450,6.030652,-0.636186,-20.123697,-24.476995,89.926308
85,333176885,-27.486996,13.826948,-102.194962,2.460707,5.757329,-0.337440,-47.404312,-36.760742,62.598171
86,333193552,-28.140703,13.478546,-101.368706,1.141552,5.347046,-0.117467,-50.670544,-43.622818,33.208366
87,333210219,-28.416496,12.916520,-100.961723,-0.192313,4.710946,-0.393291,-21.870378,-43.627319,5.304440
88,333226886,-28.138891,12.196136,-100.958000,-1.211341,3.567689,-0.853458,16.863176,-40.844917,-19.956221
89,333243553,-27.475584,11.323589,-101.334778,-1.650308,2.301246,-0.633607,44.667015,-38.666969,-43.679657
90,333260220,-26.598717,10.268233,-102.144844,-1.284073,1.340749,0.057356,61.983387,-37.391354,-70.987495
91,333276887,-25.376781,9.047453,-103.428696,-1.160163,0.311502,0.125587,86.508995,-35.263241,-100.030312
92,333293554,-23.588333,7.771814,-105.111023,-1.862651,-1.156219,-0.412187,122.339508,-30.977144,-122.266586
93,333310221,-21.107708,6.505425,-107.179695,-2.114304,-2.592448,-1.531567,164.530075,-26.150064,-142.464844
94,333326888,-18.419348,5.248234,-109.526436,-1.667367,-4.567571,-1.566437,175.987442,-26.326727,-156.969818
95,333343555,-16.319410,3.906969,-112.283020,-0.753024,-6.735872,-0.084414,139.468994,-30.274134,-181.000031
96,333360222,-15.213099,2.450018,-115.481735,0.143503,-8.853884,2.198869,77.301979,-34.721729,-207.765182
97,333376889,-15.169557,0.858685,-118.964005,-0.029172,-9.592350,1.573643,8.937877,-40.047504,-226.137711
98,333393556,-15.573728,-0.829427,-122.584839,-1.525535,-9.484506,-1.573442,-23.902292,-42.678284,-235.873611
99,333410223,-15.479780,-2.449530,-126.142204,-4.325356,-9.848589,-1.681230,-0.200100,-39.125931,-231.111618
100,333426890,-14.645470,-3.691216,-129.304642,-5.607637,-9.630823,1.084620,40.144508,-25.265366,-201.823288
101,333443557,-13.724734,-4.369298,-131.579422,-4.880654,-7.821644,3.653597,45.901550,-8.627825,-141.432449
102,333460224,-13.395844,-4.599538,-132.645630,-3.044074,-5.292767,3.099919,14.983666,-1.001574,-64.679810
103,333476891,-13.612917,-4.529928,-132.484314,-0.846811,-4.146510,1.233615,-12.005822,-0.701417,10.928430
104,333493558,-14.206619,-4.313297,-131.635635,1.028797,-4.905166,0.650909,-31.453827,-2.088001,52.988239
105,333510225,-15.368517,-4.068682,-130.688049,1.975148,-5.520637,-0.190121,-65.327034,-2.775250,59.165066
106,333526892,-16.980314,-3.865000,-129.873489,2.263521,-5.260012,-0.387962,-93.111633,-4.332177,50.833893
107,333543559,-18.685951,-3.672801,-129.140106,0.774565,-4.036608,-0.248263,-99.245567,-4.953514,45.949383
108,333560226,-19.842005,-3.360772,-128.345490,-1.571316,-2.757561,-0.051996,-66.249687,-0.506401,51.724697
109,333576893,-20.008598,-2.811265,-127.349968,-2.925403,-2.584358,-0.062364,-6.592934,8.198230,67.941833
110,333593560,-19.246271,-2.034981,-126.055840,-3.037635,-2.952674,-0.111277,49.209625,15.352796,89.356758
111,333610227,-17.916096,-1.120731,-124.458549,-2.867960,-3.629940,0.243277,82.635979,19.022978,108.939667
112,333626894,-16.409887,-0.172141,-122.623726,-2.696594,-4.556653,0.419251,91.801994,19.467972,122.641556
113,333643561,-15.068586,0.811063,-120.618057,-2.769754,-5.859463,0.351642,79.998360,21.728285,132.502808
114,333660228,-14.057283,1.769850,-118.440102,-2.581346,-6.384398,0.270245,57.930210,20.444933,141.592941
115,333676895,-13.508026,2.756352,-116.163498,-2.109145,-6.361686,0.317840,27.763865,22.607777,147.356491
116,333693562,-13.508212,3.760144,-113.813004,-2.004029,-5.763349,0.522663,-7.814739,23.332905,151.687256
117,333710229,-14.024870,4.725557,-111.510956,-2.164299,-5.096874,0.776041,-40.995888,21.161442,148.300552
118,333726896,-14.865060,5.753674,-109.308556,-2.487326,-4.544926,0.879922,-62.244568,24.605808,143.567978
119,333743563,-15.785761,6.891861,-107.240143,-2.911898,-3.848161,0.727525,-68.664490,30.968655,137.777466
120,333760230,-16.630428,8.135359,-105.332535,-2.926502,-3.305601,0.268435,-65.390656,37.687557,130.569336
121,333776897,-17.273277,9.426704,-103.630394,-2.856874,-2.657386,0.050838,-53.895676,42.409824,119.933136
122,333793564,-17.726732,10.739999,-102.150757,-2.807732,-1.719574,0.065454,-42.475018,46.596474,107.870064
123,333810231,-17.965450,12.057242,-100.940704,-2.823025,-0.632485,0.186120,-28.387079,51.153358,92.791847
124,333826898,-17.997629,13.354517,-100.079636,-2.303196,0.191270,-0.266516,-13.000109,56.209423,72.799095
125,333843565,-17.768198,14.708519,-99.544556,-2.388304,1.025997,-0.373371,6.282991,65.484947,55.421494
126,333860232,-17.123459,16.168627,-99.313789,-3.007507,2.426135,-0.451459,35.302063,77.307526,39.833717
127,333876899,-15.935631,17.697584,-99.428490,-2.133588,4.080722,-0.428210,73.582420,87.549057,20.617741
128,333893566,-14.376081,19.220575,-99.882401,-0.704531,5.027835,-0.616005,102.506523,92.678696,-0.228506
129,333910233,-12.832937,20.676273,-100.674843,0.222263,5.099667,-0.965703,109.119019,93.116623,-22.102020
130,333926900,-11.686091,21.977573,-101.814301,1.587168,5.234167,-0.577686,93.980576,87.518478,-44.879757
131,333943567,-11.208371,23.041565,-103.328056,3.444479,5.382181,0.776961,63.735966,76.901329,-68.815208
132,333960234,-11.665066,23.853123,-105.170746,3.968187,5.330138,0.882152,16.885809,65.495872,-89.033569
133,333976901,-12.845775,24.458252,-107.307228,3.023183,5.527116,-0.290583,-18.096310,57.941040,-105.886047
134,333993568,-14.298177,24.889614,-109.665619,2.783178,5.804544,-1.488817,-27.787989,52.942322,-118.235176
135,334010235,-15.763529,25.156523,-112.109970,3.436129,5.304713,-1.022875,-25.606901,47.516022,-123.524406
136,334026902,-17.272869,25.255215,-114.545456,4.340480,4.317946,-0.000975,-28.051071,40.831993,-124.426216
137,334043569,-18.905073,25.229961,-116.900986,4.744344,3.561189,0.610117,-37.391815,35.795692,-121.360115
138,334060236,-20.629217,25.087221,-119.100113,4.820518,3.635318,0.141031,-47.091244,29.857796,-114.676750
139,334076903,-22.166344,24.861710,-121.026108,4.350084,3.698856,-0.496852,-43.181252,23.128700,-101.880798
140,334093570,-23.314184,24.629740,-122.558022,3.708724,3.636250,-0.089483,-30.145430,16.923416,-81.795464
141,334110237,-24.026184,24.449652,-123.637817,3.402535,3.614974,0.987373,-15.564849,11.241964,-57.761559
142,334126904,-24.406536,24.353554,-124.243652,3.210311,3.475093,1.678307,-7.554072,5.784836,-32.015125
143,334143571,-24.609541,24.339657,-124.349113,2.894176,3.500425,1.576231,-9.320605,-0.913682,-5.063504
144,334160238,-24.658531,24.429127,-123.946709,2.549559,3.630354,1.012622,-12.652105,-6.843219,22.743591
145,334176905,-24.449236,24.639963,-123.067825,2.234792,3.744335,0.449001,-9.079966,-10.993419,49.393803
146,334193572,-24.057446,24.984428,-121.792191,2.063617,3.636555,0.519754,-8.350515,-12.268463,72.324898
147,334210239,-23.643965,25.467903,-120.207626,2.458788,3.383487,0.720072,-15.446860,-10.828905,90.881927
148,334226906,-23.306065,26.092073,-118.381142,2.551653,3.103375,0.896213,-27.121975,-7.550610,105.911964
149,334243573,-22.960159,26.905573,-116.323341,1.580610,3.337613,1.038742,-34.069942,-1.124255,121.259369
150,334260240,-22.325445,27.920031,-114.101723,1.085561,3.758339,0.971138,-23.022909,8.014635,133.104584
151,334276907,-21.301550,29.084978,-111.741142,1.536691,4.032386,0.615123,-5.892742,16.027166,141.988083
152,334293574,-20.078899,30.288002,-109.280243,2.351856,4.305094,0.408132,0.494651,19.583681,145.959106
153,334310241,-18.966839,31.383091,-106.815475,3.059465,4.541538,0.574643,-8.814915,16.865679,142.084869
154,334326908,-18.210032,32.282799,-104.451202,2.539224,4.566729,1.002434,-29.147726,10.117292,131.880920
155,334343575,-17.756468,32.982079,-102.271637,1.410564,4.864782,1.413076,-43.037025,3.272647,118.141045
156,334360242,-17.375959,33.497738,-100.361153,0.344793,4.823492,1.468809,-39.734058,-2.074497,101.174881
157,334376909,-17.016094,33.814594,-98.794563,-0.017738,4.714710,1.075142,-30.229048,-7.608005,80.796074
158,334393576,-16.716356,33.861389,-97.612007,0.228217,4.822596,0.401576,-21.251839,-17.052437,57.646885
159,334410243,-16.462015,33.609241,-96.796783,0.033622,4.714118,-0.167550,-11.627986,-28.757145,35.096649
160,334426910,-16.111269,33.063881,-96.368782,-0.611432,4.119678,-0.551761,7.208554,-40.073231,11.851423
161,334443577,-15.438649,32.260170,-96.380501,-1.010085,3.578518,-0.913487,41.015251,-48.897251,-13.243139
162,334460244,-14.405844,31.202559,-96.815704,-1.007125,2.814216,-1.425117,75.981796,-58.251926,-37.359600
163,334476911,-13.223983,29.810593,-97.681839,-0.116293,2.156387,-2.085663,97.571503,-73.065125,-62.974236
164,334493578,-12.274487,27.965467,-98.891891,0.728924,1.064819,-2.684712,92.324516,-96.600441,-85.983131
165,334510245,-11.703801,25.626270,-100.456787,1.168094,-0.177764,-2.838573,76.851250,-122.523514,-110.684479
166,334526912,-11.425410,22.866953,-102.330017,1.005871,-1.877274,-2.833778,63.142799,-144.284531,-133.132034
167,334543579,-11.034047,19.832479,-104.515907,0.244421,-3.535894,-2.869885,71.507729,-157.410004,-154.809601
168,334560246,-10.293094,16.669273,-106.948288,-1.123497,-6.201619,-2.342443,90.430054,-163.469940,-170.865555
169,334576913,-9.423656,13.662626,-109.483681,-2.626076,-8.199594,-1.168643,92.225090,-155.185806,-175.070190
170,334593580,-8.678829,10.849058,-112.244888,-2.148266,-9.212319,0.721283,80.120186,-143.813019,-185.954742
171,334610247,-8.240583,8.279031,-115.207237,-1.989973,-9.895388,2.284747,56.090977,-129.290817,-195.552490
172,334626914,-8.053861,5.973324,-118.268044,-2.609893,-9.476913,2.187822,34.251671,-113.658943,-199.482422
173,334643581,-8.101438,3.878872,-121.314941,-2.037629,-8.867331,0.707772,13.110793,-101.354759,-197.467346
174,334660248,-8.530521,1.956290,-124.142418,-1.594895,-8.317865,0.054910,-16.841030,-92.160118,-183.805511
175,334676915,-9.361133,0.300064,-126.531578,-2.350048,-7.469666,1.262210,-46.747543,-78.402954,-156.493973
176,334693582,-10.422791,-0.972393,-128.386124,-3.385242,-5.662524,2.218590,-64.091576,-58.623119,-122.191536
177,334710249,-11.389641,-1.851962,-129.620895,-2.855756,-3.664397,1.833242,-59.581665,-40.332870,-82.165138
178,334726916,-12.114627,-2.378659,-130.192734,-2.260291,-2.453323,1.384472,-44.512711,-26.479729,-39.453152
179,334743583,-12.446659,-2.605114,-130.196655,-1.656349,-2.136669,0.825554,-19.679447,-15.748772,-2.565322
180,334760250,-12.393084,-2.566591,-129.766022,-1.368923,-2.428127,0.521735,4.633778,-5.814956,26.257086
181,334776917,-12.062276,-2.307125,-129.041718,-1.217241,-2.665781,0.313484,21.949575,3.498874,46.283543
182,334793584,-11.580017,-1.982034,-128.128510,-0.811624,-2.692437,0.184799,31.239340,5.355922,58.142654
183,334810251,-11.032294,-1.382628,-126.972153,-1.854764,-2.874809,0.321953,35.153652,19.152050,75.608398
184,334826918,-10.369436,-0.817469,-125.507011,-1.143762,-3.153195,0.009998,41.711952,14.484005,93.212074
185,334843585,-9.802188,-0.078383,-123.743263,-1.987157,-4.410038,0.011109,35.115635,22.612085,112.503281
186,334860252,-9.226415,0.714695,-121.705956,-1.977197,-4.785446,-0.025914,34.121418,24.211452,128.971176
187,334876919,-8.915090,1.388491,-119.529182,-1.384955,-5.606133,0.236127,16.539812,16.825323,135.878998
188,334893586,-9.231092,2.005189,-117.227768,-1.706861,-6.113247,0.580263,-22.785620,12.267747,142.687439
189,334910253,-10.232323,2.573347,-114.800346,-2.075461,-6.223487,0.908257,-65.618759,6.497883,149.755753
190,334926920,-11.786023,3.131939,-112.271332,-2.353293,-5.952338,1.243370,-100.492325,1.459134,155.728470
191,334943587,-13.591717,3.705720,-109.714294,-2.534545,-5.565609,1.362164,-117.202538,-2.550398,157.542679
192,334960254,-15.382733,4.339612,-107.196228,-2.932164,-4.893364,1.445446,-117.768326,-3.373199,156.010300
193,334976921,-17.011822,5.098047,-104.721001,-3.024384,-4.007554,1.475217,-109.669411,-0.081651,155.407059
194,334993588,-18.337252,6.011538,-102.355675,-2.781800,-3.265486,1.472740,-92.968811,6.839414,151.807602
195,335010255,-19.452686,7.063581,-100.173286,-2.377660,-2.950407,1.259081,-81.539696,15.095514,144.103653
196,335026922,-20.549009,8.221272,-98.274467,-1.604197,-2.503481,0.706622,-80.633560,24.152811,130.448273
197,335043589,-21.736576,9.408762,-96.739296,-0.873532,-1.584376,0.028414,-85.071182,31.123322,111.182457
198,335060256,-22.976513,10.545491,-95.572182,-0.340593,-0.376310,-0.084341,-86.231239,34.344704,90.312386
199,335076923,-24.209593,11.616317,-94.721581,-0.712796,0.673980,0.141008,-83.497787,36.331837,72.194725
200,335093590,-25.402712,12.616620,-94.233414,-0.600379,1.524153,0.008233,-77.439659,39.960197,51.759098
201,335110257,-26.576195,13.556962,-94.122383,-0.021803,2.266056,-0.444583,-71.621536,45.362274,31.136187
202,335126924,-27.700745,14.438390,-94.358917,0.037493,3.104372,-0.827846,-63.745686,50.830013,12.447783
203,335143591,-28.698891,15.216639,-94.860458,-0.249497,4.010210,-1.099177,-51.895164,52.378132,-2.996333
204,335160258,-29.420477,15.939295,-95.573219,-0.822689,4.315336,-0.960623,-31.516884,55.386410,-14.380146
205,335176925,-29.791882,16.701717,-96.501312,-0.817653,4.657815,-0.648436,-6.345291,63.643463,-23.295233
206,335193592,-29.947258,17.478033,-97.659615,0.315371,5.225007,-0.516848,11.392288,70.940926,-33.846600
207,335210259,-30.136492,18.232464,-99.055534,1.330286,5.476426,-0.662280,14.618031,76.555046,-45.790001
208,335226926,-30.544600,18.882307,-100.682816,2.464710,5.489352,-0.720435,6.876778,77.858810,-59.632061
209,335243593,-31.341389,19.421186,-102.489433,3.295874,4.962328,-0.578922,-11.953828,77.831726,-70.646751
210,335260260,-32.602886,19.796051,-104.428604,4.447227,4.587293,-0.357759,-36.352512,74.560715,-80.520287
211,335276927,-34.313244,19.990681,-106.393288,4.853494,4.104533,-0.116408,-62.218517,68.300125,-85.499840
212,335293594,-36.227489,20.027529,-108.302208,4.606962,4.020112,-0.053381,-75.373459,61.392864,-86.056267
213,335310261,-37.922493,19.971634,-110.074623,3.575111,4.172171,-0.244328,-65.042763,55.009758,-81.224655
214,335326928,-39.096600,19.884672,-111.633713,2.775479,4.481487,-0.281405,-38.282211,48.112537,-71.542099
215,335343595,-39.612392,19.792505,-112.926605,2.858287,4.544721,-0.032612,-4.342813,39.431236,-59.412052
216,335360262,-39.570843,19.687244,-113.923546,3.483384,4.291280,0.239149,22.972092,28.444506,-46.895798
217,335376929,-39.205383,19.580015,-114.574837,3.402460,3.926666,0.802390,35.334900,15.814927,-32.022026
218,335393596,-38.573158,19.496122,-114.855148,2.692452,3.876839,1.190095,43.832493,3.459835,-14.991292
219,335410263,-37.655663,19.483280,-114.721375,1.760595,3.972879,1.130853,52.646641,-7.849730,5.978134
220,335426930,-36.469204,19.568398,-114.182373,1.432077,3.880958,0.638230,60.652149,-16.873674,27.900694
221,335443597,-35.203266,19.745975,-113.285156,1.881388,3.461102,0.266461,58.119434,-23.624611,47.834339
222,335460264,-34.184063,19.988527,-112.069901,2.410220,3.123602,0.272193,36.645531,-29.650791,65.159821
223,335476931,-33.569702,20.273539,-110.589981,2.804349,3.128156,0.549960,6.573501,-34.860321,79.241417
224,335493598,-33.233116,20.621796,-108.905754,2.662597,3.448581,0.784347,-14.836146,-37.267071,91.036095
225,335510265,-32.863087,21.079750,-107.090454,1.887802,3.893244,0.748037,-16.296940,-35.066090,100.786415
226,335526932,-32.171135,21.701466,-105.202805,1.000327,4.298834,0.755211,0.475515,-27.825052,109.457581
227,335543599,-31.043722,22.452271,-103.311958,1.313049,4.713271,0.371654,25.266205,-19.331738,113.626244
228,335560266,-29.743612,23.226194,-101.474243,2.146856,5.101573,0.151441,35.471603,-13.956314,111.621330
229,335576933,-28.657467,23.883345,-99.739189,2.690768,5.385052,0.295582,23.827435,-14.739586,103.013885
230,335593600,-27.926685,24.349541,-98.152641,2.374387,5.376974,0.691205,5.214897,-19.153240,90.235466
231,335610267,-27.348118,24.639673,-96.773178,1.144857,5.200139,0.935564,0.660739,-22.122450,75.268990
232,335626934,-26.649227,24.791357,-95.670494,-0.133595,4.980464,0.617823,14.533678,-21.781055,58.147068
233,335643601,-25.799755,24.764507,-94.839760,-0.971431,4.458603,0.316883,30.341774,-24.053329,40.351952
234,335660268,-25.088491,24.482634,-94.241493,-1.396707,3.489088,0.465096,27.982697,-31.905853,22.670938
235,335676935,-24.896170,23.891230,-93.869598,-1.450447,2.266989,0.986021,2.664001,-43.376282,3.924359
236,335693602,-25.295780,23.024746,-93.743462,-1.541935,1.528309,1.262094,-26.722107,-52.642639,-15.295053
237,335710269,-25.862713,21.957733,-93.871513,-1.861333,1.568442,0.522898,-30.806820,-57.297630,-33.571983
238,335726936,-25.769691,20.756533,-94.239227,-2.429680,1.148235,-1.096165,13.885832,-58.546696,-49.411179
239,335743603,-24.901447,19.472511,-94.658585,-3.108904,0.086716,-1.516827,61.017986,-62.138458,-53.847675
240,335760270,-23.586393,18.011593,-95.308716,-2.427625,-0.614091,-1.082544,91.706093,-67.373741,-69.195976
241,335776937,-22.240599,16.325651,-96.242928,-1.059268,-1.524523,-0.678393,97.562721,-74.938866,-88.230698
242,335793604,-21.025227,14.437584,-97.557602,-0.040335,-2.037466,-0.907435,94.114273,-79.877029,-111.975212
243,335810271,-19.780521,12.420124,-99.286789,0.375269,-2.372883,-2.298653,99.043228,-80.876244,-136.296265
244,335826938,-18.313265,10.272222,-101.368301,0.597783,-3.122967,-3.439640,112.865501,-84.453644,-157.313965
245,335843605,-16.799152,8.003569,-103.765373,0.733802,-4.902002,-3.096238,113.942657,-89.532433,-175.953247
246,335860272,-15.576933,5.618769,-106.475639,0.589963,-6.716341,-1.473854,92.873894,-94.972702,-194.460175
247,335876939,-14.583594,3.247030,-109.501732,-0.674038,-8.527276,0.484653,73.889626,-92.866142,-211.309998
248,335893606,-13.284589,1.102409,-112.775261,-2.029719,-9.264419,1.317425,85.638924,-80.177452,-220.975967
249,335910273,-11.379810,-0.622272,-116.012634,-3.523005,-9.637979,1.719911,115.335434,-62.158054,-211.353073
250,335926940,-9.197500,-1.900290,-118.897820,-2.993542,-9.158979,1.650831,127.367813,-47.090473,-183.470840
251,335943607,-7.415062,-2.729290,-121.193031,-1.764206,-8.026044,2.377329,101.639351,-31.893066,-142.822769
252,335960274,-6.803848,-3.220708,-122.663071,-1.524300,-6.441373,2.513903,32.362785,-20.908655,-90.526253
253,335976941,-7.335605,-3.537388,-123.261177,-0.982799,-4.653413,1.211630,-33.751175,-16.995346,-37.359898
254,335993608,-8.429404,-3.805411,-123.086388,-0.292209,-3.116813,0.939096,-64.687767,-19.910114,8.692549
255,336010275,-9.588852,-4.028921,-122.469391,-0.069115,-2.191381,1.254230,-66.769745,-21.572212,34.910496
256,336026942,-10.476142,-4.138851,-121.718452,-0.031957,-1.955328,1.048194,-49.760872,-16.867147,43.639408
257,336043609,-10.830281,-4.111631,-121.013252,-0.069392,-2.060688,0.557474,-17.939285,-8.738365,42.308697
258,336060276,-10.613381,-4.023110,-120.367905,0.330225,-2.000963,0.347567,16.024336,-4.508479,39.468662
259,336076943,-10.079136,-3.635307,-119.576302,-0.774929,-2.481399,0.820626,35.489880,11.837071,51.330395
260,336093610,-9.160878,-3.311133,-118.523438,-0.307003,-2.286623,0.964197,59.184124,6.100314,65.949905
261,336110277,-8.220905,-2.719479,-117.084785,-1.486371,-3.882827,1.421430,61.198734,19.526960,91.105171
262,336126944,-7.313233,-1.953657,-115.236359,-1.641904,-5.006561,1.257197,59.240471,28.013277,116.537712
263,336143611,-6.855130,-1.237478,-113.017952,-0.841395,-6.098296,0.845896,31.453001,23.697172,137.866776
264,336160278,-7.104537,-0.530953,-110.574356,-0.467505,-6.601865,0.815869,-12.433665,21.729469,151.195374
265,336176945,-8.036638,0.182991,-108.001770,-0.671303,-6.588795,0.850616,-55.180923,19.598295,159.185532
266,336193612,-9.480517,0.827664,-105.431145,-0.415501,-6.168206,0.603469,-87.710098,12.219586,158.862000
267,336210279,-11.360203,1.454294,-102.949654,-0.258539,-5.679365,0.175467,-115.458054,7.533173,153.745132
268,336226946,-13.522289,2.158180,-100.584366,-0.419134,-4.874188,-0.137021,-133.907684,8.164450,148.162949
269,336243613,-15.758218,2.968925,-98.317764,-1.082087,-4.298491,-0.336504,-139.946503,10.210366,144.294815
270,336260280,-17.809681,3.842613,-96.223160,-1.337882,-3.813620,-0.261424,-130.264160,11.447936,135.793137
271,336276947,-19.667120,4.770178,-94.343925,-1.089115,-3.270205,-0.082989,-119.624100,14.069082,124.907158
272,336293614,-21.558153,5.725276,-92.702835,-0.404398,-2.688918,0.111253,-122.179329,16.603735,112.506920
273,336310281,-23.706753,6.670961,-91.325859,0.151850,-2.245866,-0.028076,-137.547043,18.249863,98.206032
274,336326948,-26.007250,7.566670,-90.278610,0.109643,-1.237635,-0.726982,-145.529465,20.041536,79.722801
275,336343615,-28.241554,8.426763,-89.516121,-1.001808,-0.210026,-0.426723,-140.137482,22.757584,64.414612
276,336360282,-30.317301,9.261537,-89.066162,-1.800613,0.257331,0.107173,-128.410995,28.123617,48.321831
277,336376949,-32.212868,10.086624,-89.009705,-1.781751,0.629200,0.273775,-114.018852,38.060928,29.106991
278,336393616,-33.950836,10.957306,-89.328537,-1.743706,1.037036,0.048080,-100.497955,51.514282,13.312544
279,336410283,-35.369061,11.896498,-89.983353,-2.016412,1.659960,0.031464,-77.023132,65.724220,0.926554
280,336426950,-36.279327,12.891621,-90.897125,-1.895016,2.457216,0.525051,-42.561588,77.220879,-7.918103
281,336443617,-36.820099,13.941040,-92.033669,-1.836859,3.053440,0.805651,-16.337622,87.544777,-15.234323
282,336460284,-37.227692,15.014742,-93.446609,-1.421251,3.390207,0.488523,-2.975331,98.316444,-26.192595
283,336476951,-37.660828,16.071987,-95.145653,-0.676553,3.769696,-0.094069,1.615909,107.528404,-38.858093
284,336493618,-38.224903,17.060715,-97.087616,-0.126265,3.962027,-0.329622,-0.334366,112.905472,-51.053741
285,336510285,-38.906086,17.947760,-99.268593,-0.234615,3.506135,0.230401,-1.222929,116.861572,-63.857319
286,336526952,-39.599777,18.816221,-101.701187,-0.874887,2.670801,0.754863,4.695229,125.433601,-73.745491
287,336543619,-40.151993,19.755516,-104.387123,-1.137416,2.466590,1.002150,20.382483,138.212219,-80.067413
288,336560286,-40.455086,20.707258,-107.239273,-0.703475,3.040915,0.443892,41.279621,144.849792,-84.984756
289,336576953,-40.565022,21.555517,-110.128044,0.376063,3.530946,-0.762789,56.172932,141.149628,-89.323151
290,336593620,-40.666321,22.275187,-112.989525,1.159934,3.479287,-1.089930,58.285755,133.902481,-92.268166
291,336610287,-40.902500,22.819946,-115.801979,2.093097,3.338370,-0.605240,50.818985,123.984436,-96.120918
292,336626954,-41.321503,23.207930,-118.543907,3.258721,3.218091,-0.054496,39.462978,114.537567,-98.245361
293,336643621,-41.945732,23.466002,-121.137398,3.890115,3.526453,-0.099158,24.474665,103.932228,-95.971382
294,336660288,-42.696507,23.618195,-123.464455,3.996409,4.243142,-0.637212,11.008185,90.368034,-87.967293
295,336676955,-43.332298,23.691957,-125.409760,3.962860,4.990936,-0.838779,8.965339,73.602104,-74.629776
296,336693622,-43.687843,23.725975,-126.905861,3.827078,5.368241,-0.419272,15.042078,55.497959,-57.682743
297,336710289,-43.766556,23.771297,-127.931931,3.875057,5.272810,0.029445,20.353197,38.347153,-38.328575
298,336726956,-43.644779,23.891281,-128.469254,3.828212,4.959404,0.320444,20.612885,23.006351,-15.831557
299,336743623,-43.405472,24.128836,-128.507874,3.583300,4.803345,0.477221,15.584576,9.216853,8.787148
300,336760290,-43.036472,24.490602,-128.051163,3.042646,4.846523,0.472133,11.142310,-3.861759,33.566708
301,336776957,-42.518429,24.983723,-127.139687,3.041652,4.834228,0.183540,8.480400,-14.596975,57.049519
302,336793624,-42.002934,25.578896,-125.808876,3.281384,4.595984,-0.071742,-2.888220,-24.709562,77.946579
303,336810291,-41.701717,26.203423,-124.112595,3.655843,4.331906,-0.313596,-26.087523,-35.764839,93.692223
304,336826958,-41.664501,26.809805,-122.093651,3.445612,4.277298,-0.180829,-51.548950,-47.505844,105.643341
305,336843625,-41.757599,27.395266,-119.800232,2.366204,4.524661,0.202429,-67.994247,-57.873615,115.301544
306,336860292,-41.666565,27.983440,-117.285538,1.021228,4.841820,0.353396,-64.370659,-65.144966,123.697311
307,336876959,-41.229691,28.577208,-114.613335,0.430103,4.992979,0.231211,-49.474335,-69.353348,129.894104
308,336893626,-40.499886,29.131113,-111.849136,0.445967,4.964169,-0.064849,-35.975693,-72.501923,132.073517
309,336910293,-39.690922,29.558146,-109.063881,0.489299,4.891928,-0.193242,-33.089748,-76.816399,128.413223
310,336926960,-38.909607,29.785646,-106.276016,-0.315390,4.780190,0.085603,-35.655807,-84.086655,121.587631
311,336943627,-38.027206,29.805542,-103.512970,-1.259449,4.520565,0.535274,-29.166868,-91.157600,113.858849
312,336960294,-36.903118,29.651968,-100.842316,-1.798885,4.402387,0.606829,-11.751635,-94.548889,105.317184
313,336976961,-35.501633,29.297817,-98.330467,-1.430273,4.309157,0.301468,10.197530,-97.235863,93.800262
314,336993628,-33.960945,28.707556,-96.068108,-0.704419,4.372901,-0.312075,26.889811,-99.339928,77.873764
315,337010295,-32.456860,27.880503,-94.117020,-0.402448,4.047644,-0.599084,35.021145,-100.573051,59.547913
316,337026962,-31.101910,26.787941,-92.583267,0.018330,3.773042,-0.798688,39.306080,-101.382080,35.454472
317,337043629,-30.011944,25.435259,-91.513237,0.114005,2.841048,-0.714124,37.406311,-101.805420,8.867711
318,337060296,-29.299709,23.915922,-90.935379,-0.423254,1.533773,-0.441627,28.525957,-97.414925,-17.244457
319,337076963,-28.710318,22.262365,-90.857101,-0.852892,1.097637,-0.182529,33.789555,-91.473442,-43.845959
320,337093630,-27.912880,20.448072,-91.195595,-0.693345,0.761722,-0.505714,55.507610,-89.475372,-67.794220
321,337110297,-26.728575,18.483845,-91.895546,-0.478965,0.702781,-1.197526,85.316177,-89.142784,-88.785439
322,337126964,-24.921844,16.402672,-92.971581,-0.972323,-0.404108,-1.977164,128.013382,-88.177559,-109.354042
323,337143631,-22.758047,14.238982,-94.310936,-1.828340,-2.993670,-1.555646,151.312561,-90.028641,-122.879761
324,337160298,-21.051575,11.938258,-95.802315,-1.421786,-4.884839,0.138851,122.908012,-98.165482,-131.873474
325,337176965,-20.349081,9.409184,-97.450562,0.469608,-5.645242,1.813190,60.735497,-110.186752,-144.049377
326,337193632,-20.638857,6.645746,-99.208946,0.686412,-5.320449,1.595925,-2.369320,-121.319145,-155.403625
327,337210299,-21.225330,3.851866,-101.069504,-2.079416,-5.586945,0.179742,-24.688276,-119.429642,-163.216080
328,337226966,-20.861849,1.391650,-103.159164,-4.830964,-6.582474,-0.055107,27.817526,-95.365524,-169.390610
329,337243633,-18.938841,-0.482981,-105.521606,-4.338994,-7.478026,1.147226,116.757195,-60.083385,-171.057251
330,337260300,-15.950128,-1.758481,-108.083969,-1.832837,-7.533381,2.154251,176.558868,-29.496298,-169.082336
331,337276967,-12.720426,-2.604312,-110.693764,-0.692827,-7.891054,2.891145,188.064911,-12.989453,-163.663483
332,337293634,-9.948606,-3.202389,-113.157898,0.349465,-7.982842,2.200339,159.072083,-8.723248,-151.315491
333,337310301,-8.230763,-3.669941,-115.243736,0.459098,-7.883625,2.027555,95.833855,-10.519914,-127.263199
334,337326968,-7.761276,-3.914305,-116.635292,-1.030818,-6.617393,1.683742,22.920172,-5.482199,-84.009239
335,337343635,-8.043552,-3.894891,-117.091980,-1.950019,-4.602880,0.702159,-18.529808,2.365822,-26.390913
336,337360302,-8.586154,-3.783153,-116.677734,-1.196803,-3.454121,0.710332,-30.619490,0.504144,26.037907
337,337376969,-9.287294,-3.620890,-115.681030,-0.378930,-3.613716,0.546553,-37.933853,-2.193370,60.993687
338,337393636,-9.979108,-3.392821,-114.400795,0.154069,-3.886130,0.168262,-36.537312,-1.876615,78.407166
339,337410303,-10.489619,-3.147925,-113.005630,-0.241803,-3.754936,0.107347,-25.583511,-2.925270,85.389107
340,337426970,-10.682785,-2.523299,-111.417747,-1.910885,-4.254199,0.249884,-6.606810,16.823000,100.952080
341,337443637,-10.275875,-1.746976,-109.574554,-1.689270,-4.198977,0.014899,28.801727,23.168627,117.675362
342,337460304,-9.574621,-0.659935,-107.394562,-1.510433,-5.397380,-0.079542,45.086674,39.173176,140.589188
343,337476971,-8.781562,0.487279,-104.928413,-0.688065,-6.476732,-0.014854,48.068893,41.818939,157.589493
344,337493638,-8.277360,1.725303,-102.123856,-0.327985,-7.285674,0.585534,27.267954,45.976582,177.932419
345,337510305,-8.152062,2.982901,-99.266769,-0.111447,-7.644626,0.847434,0.748310,47.683079,180.840454
346,337526972,-8.472136,4.224411,-96.420494,0.527784,-7.816489,0.450520,-29.658701,46.550419,179.953079
347,337543639,-9.160005,5.473824,-93.623741,0.951211,-7.091588,-0.138234,-55.170517,45.941330,177.258530
348,337560306,-9.961217,6.690846,-90.891495,0.776526,-5.321617,-0.130317,-65.154457,42.427841,173.415405
349,337576973,-10.675866,7.874493,-88.303825,0.367655,-4.105212,0.139950,-62.271469,39.784740,164.779861
350,337593640,-11.191416,9.111475,-85.932762,0.441104,-3.518192,0.361571,-51.656677,43.688206,152.773071
351,337610307,-11.543395,10.406854,-83.877380,0.804288,-2.925915,0.506800,-41.735580,49.750690,135.021408
352,337626974,-12.016037,11.700840,-82.211884,1.188996,-2.313416,0.390889,-47.229267,53.494541,112.407242
353,337643641,-12.752567,12.932463,-80.948120,1.194487,-1.486798,0.136433,-60.075245,53.806129,88.753456
354,337660308,-13.712930,14.060842,-80.085907,1.034874,-0.620301,0.106285,-69.405151,51.908554,65.015236
355,337676975,-14.863515,15.101579,-79.631874,0.367384,-0.154727,0.222478,-75.603409,51.524731,41.512447
356,337693642,-16.200373,16.088436,-79.606674,-0.422340,0.045677,0.416424,-80.328278,54.176716,17.810368
357,337710309,-17.757416,17.069012,-80.030945,-1.025817,0.067858,0.608932,-85.868469,60.912285,-5.604047
358,337726976,-19.623772,18.058064,-80.891068,-1.587161,0.307188,0.553073,-96.116005,69.493935,-27.034580
359,337743643,-21.771227,19.069281,-82.114471,-2.389927,0.768097,-0.093124,-105.182747,78.861847,-43.094929
360,337760310,-23.867058,20.088989,-83.643234,-4.003378,1.653174,-0.930615,-94.714272,87.415451,-55.370152
361,337776977,-25.667915,21.131929,-85.395050,-5.392466,2.507709,-1.171254,-70.752991,95.533569,-62.552601
362,337793644,-27.083420,22.209227,-87.345261,-5.526514,3.274785,-0.676538,-41.419765,103.707802,-68.142479
363,337810311,-28.279961,23.279091,-89.518669,-3.675689,4.302888,-0.106794,-21.073767,110.195663,-76.114243
364,337826978,-29.588770,24.284082,-91.941856,-0.821637,4.920895,0.038648,-19.594156,114.614006,-86.702316
365,337843645,-31.436693,25.311363,-94.545174,1.202236,5.043359,-0.100479,-45.051208,122.561302,-90.302429
366,337860312,-33.929798,26.151049,-97.455780,3.202296,5.629065,-0.701126,-73.449249,124.817444,-104.646690
367,337876979,-36.825676,26.779263,-100.686211,3.662266,5.689907,-1.430836,-87.048820,128.648788,-119.101250
368,337893646,-39.628956,27.181831,-104.249443,4.265838,5.899678,-2.468170,-70.876373,134.319809,-134.172974
369,337910313,-42.201279,27.351591,-107.982422,4.359067,5.567838,-2.777362,-51.406609,135.536575,-143.228638
370,337926980,-44.652725,27.326387,-111.662743,2.889046,4.884248,-1.690012,-45.360558,131.189941,-142.952652
371,337943647,-46.600468,27.261341,-115.128471,0.603980,5.087819,0.011537,-21.208895,126.801018,-131.481232
372,337960314,-47.610550,27.338264,-118.224937,0.133203,5.648265,1.451746,24.889927,121.528954,-108.459236
373,337976981,-47.681156,27.652546,-120.842369,1.453414,5.793279,1.516188,68.546272,113.086525,-79.394478
374,337993648,-47.240051,28.201981,-122.855804,3.073229,5.135656,1.060843,83.320572,98.364845,-47.355572
375,338010315,-46.905834,28.889238,-124.113007,3.904295,4.986481,0.424901,56.378105,74.032776,-14.421284
376,338026982,-47.030586,29.612326,-124.602867,3.737527,5.252974,0.197701,7.155909,45.776260,14.726828
377,338043649,-47.539227,30.311598,-124.404930,3.035570,5.441245,0.408598,-36.166912,18.326685,38.310150
378,338060316,-48.162575,31.000771,-123.631142,2.322741,5.195653,0.599035,-60.788754,-4.439828,57.959038
379,338076983,-48.666264,31.723890,-122.368561,1.824486,4.860720,0.786531,-69.363167,-22.169003,75.884720
380,338093650,-48.864624,32.491753,-120.721931,1.637965,4.446683,0.860174,-64.129478,-35.151566,90.300392
381,338110317,-48.683529,33.296543,-118.768616,1.496511,3.953904,1.014441,-52.501995,-44.780396,101.658890
382,338126984,-48.145729,34.078915,-116.603676,1.880138,3.647378,0.848680,-39.501801,-52.274616,107.331947
383,338143651,-47.454769,34.790211,-114.263046,1.981172,3.445297,0.793985,-37.677265,-59.729664,109.901268
384,338160318,-46.763737,35.367188,-111.801483,2.151810,3.551854,0.748838,-43.141964,-67.581963,108.100586
385,338176985,-46.165539,35.768986,-109.253372,2.326604,3.747921,0.720577,-52.763187,-76.141853,103.613716
386,338193652,-45.810425,35.939056,-106.686966,2.399086,4.147112,0.628195,-68.612068,-85.258354,94.529480
387,338210319,-45.712269,35.832870,-104.162758,1.781544,4.293415,0.635169,-82.612854,-94.942276,81.513550
388,338226986,-45.701595,35.533512,-101.720779,0.019725,3.807432,1.198393,-84.552269,-100.316467,70.726280
389,338243653,-45.480747,35.138290,-99.456001,-1.372159,3.465228,1.602427,-65.069305,-98.367661,61.102669
390,338260320,-44.920078,34.701843,-97.431984,-1.696239,3.268839,1.232908,-35.608356,-91.696007,52.054741
391,338276987,-44.173084,34.178402,-95.699203,-1.149406,3.518270,0.349244,-13.710116,-85.121246,39.550697
392,338293654,-43.474731,33.494579,-94.255112,-0.651216,3.646976,-0.229745,-6.077666,-82.030228,23.991758
393,338310321,-42.945778,32.616379,-93.140244,-0.592950,3.230081,-0.291515,-4.481157,-79.385887,5.261805
394,338326988,-42.595226,31.508968,-92.374985,-0.735251,2.709005,-0.810540,-3.072965,-77.795959,-16.076244
395,338343655,-42.280609,30.170555,-91.954208,-0.575946,2.263677,-1.145345,6.205227,-76.490082,-37.714188
396,338360322,-41.945358,28.588932,-91.899597,-0.278253,1.940434,-1.460224,18.776024,-74.910629,-61.040802
397,338376989,-41.582146,26.722555,-92.205475,-0.154228,1.702788,-2.185071,30.579866,-75.298004,-86.229706
398,338393656,-41.125126,24.568668,-92.821297,-0.240338,0.796446,-2.902458,43.679585,-77.597229,-109.906853
399,338410323,-40.446224,22.164539,-93.741791,-0.224186,-0.119456,-3.005522,62.907749,-78.692200,-132.133881
400,338426990,-39.495926,19.476147,-94.986008,0.085982,-0.905959,-3.032082,83.815277,-81.383423,-156.613098
401,338443657,-38.250462,16.477678,-96.559769,0.255868,-1.950330,-3.716805,104.123894,-86.279655,-182.351700
402,338460324,-36.742237,13.228456,-98.358658,0.374196,-3.775745,-4.467015,118.407379,-93.746422,-200.956879
403,338476991,-35.369915,9.830281,-100.274612,1.020620,-5.667499,-4.030948,105.560478,-101.108322,-210.574036
404,338493658,-34.504627,6.280714,-102.367157,1.396850,-6.870632,-2.463118,69.765244,-105.957108,-223.376053
405,338510325,-33.970322,2.706819,-104.764465,0.486657,-8.221702,-0.063540,43.585884,-99.138863,-238.689682
406,338526992,-33.182995,-0.595477,-107.545624,-1.545824,-9.127936,1.640249,50.561348,-75.335114,-248.068893
407,338543659,-31.473923,-3.408095,-110.566422,-3.135052,-8.812810,1.632144,96.436775,-48.260616,-242.789078
408,338560326,-28.913277,-5.715635,-113.543404,-3.066865,-8.267600,1.806782,139.642685,-32.654018,-223.013077
409,338576993,-26.270662,-7.617479,-116.275284,-2.068069,-8.106624,2.230433,139.750732,-28.262739,-196.620346
410,338593660,-24.518265,-9.150513,-118.444992,-1.698017,-7.366588,3.389094,86.408318,-30.402590,-155.263550
411,338610327,-23.995388,-10.264586,-119.789673,-2.428710,-5.165255,4.147762,18.030302,-30.812967,-99.434937
412,338626994,-24.261122,-10.887320,-120.153564,-3.114104,-3.038313,2.995749,-19.686119,-27.868521,-34.326374
413,338643661,-24.639738,-11.071606,-119.613297,-1.923215,-2.416800,1.853578,-16.275230,-25.777712,24.928612
414,338660328,-24.969061,-10.928314,-118.490601,-1.351575,-2.509444,2.305573,-6.637383,-22.475229,64.167450
415,338676995,-25.037928,-10.624626,-117.176102,-1.119765,-2.703694,2.166875,10.881969,-18.772470,78.455788
416,338693662,-24.806246,-9.947147,-115.740700,-1.184740,-3.389558,1.916290,29.547197,-1.382135,94.515038
417,338710329,-24.238348,-9.337804,-114.237419,0.783071,-3.024291,1.084982,49.447662,-6.179437,96.616898
418,338726996,-23.737720,-8.347386,-112.658401,-0.053152,-3.951228,1.570331,44.866669,13.698230,110.227165
419,338743663,-23.267529,-7.381247,-111.098618,1.078714,-4.055940,1.647858,41.280819,13.655346,108.671349
420,338760330,-23.389299,-6.393256,-109.352371,1.435257,-4.661676,1.949581,5.525369,10.708363,119.529938
421,338776997,-24.129618,-5.452097,-107.565025,1.076676,-5.481511,2.076546,-33.082767,6.176007,120.919350
422,338793664,-25.313562,-4.213598,-105.811020,-0.287920,-6.311023,2.423147,-61.896751,21.115223,126.873550
423,338810331,-26.652132,-2.691662,-103.983444,-0.681991,-6.324852,3.078716,-73.434189,31.605339,138.945923
424,338826998,-28.310196,-0.949125,-102.063995,-0.410937,-6.394928,3.208777,-95.541039,37.110577,150.916748
425,338843665,-30.512169,0.903651,-100.202347,0.254330,-5.961670,3.009402,-131.783386,39.464088,152.453018
426,338860332,-33.280903,2.871596,-98.401428,-0.008303,-5.427893,2.746319,-169.383682,40.665703,154.647369
427,338876999,-36.151649,5.021078,-96.656242,-0.814829,-5.018666,2.244286,-179.148453,43.998489,159.891754
428,338893666,-38.652657,7.429774,-95.004662,-1.647386,-4.717041,1.885694,-160.502853,52.453003,166.614395
429,338910333,-40.541920,10.092956,-93.485916,-1.993769,-4.170777,1.272100,-126.936401,63.202930,171.818237
430,338927000,-41.905582,12.915115,-92.146400,-1.498584,-3.458153,0.402338,-97.554367,72.939850,171.397842
431,338943667,-42.987366,15.780367,-91.000969,-1.026155,-2.727725,-0.507817,-81.646385,79.403305,165.733368
432,338960334,-43.960922,18.584986,-90.079254,-0.456137,-2.009057,-1.340221,-74.460785,83.247253,154.697754
433,338977001,-44.812996,21.284521,-89.391342,-0.674939,-1.265595,-1.675775,-64.907265,86.092628,141.603577
434,338993668,-45.443214,23.836510,-88.962738,-1.026666,-0.453141,-1.857033,-47.392838,88.682770,125.844322
435,339010335,-45.797844,26.227463,-88.800827,-1.270902,0.279893,-1.934455,-25.103823,91.524307,109.265961
436,339027002,-45.928127,28.418455,-88.880867,-1.607754,0.801740,-1.875502,-5.330219,92.087212,91.949791
437,339043669,-45.911617,30.386087,-89.197250,-1.522195,1.569674,-1.752151,10.592107,91.486786,73.875923
438,339060336,-45.776428,32.108685,-89.792816,-0.893266,2.742370,-1.842334,26.929754,91.392090,53.443535
439,339077003,-45.713985,33.584721,-90.671921,-0.683778,3.304582,-1.681456,32.638447,91.014214,33.077129
440,339093670,-45.749481,34.824604,-91.822861,-1.285932,3.143008,-1.040000,36.970669,90.291000,13.973389
441,339110337,-45.672581,35.936447,-93.165619,-2.024266,2.796216,0.015364,51.543121,91.066643,2.451685
442,339127004,-45.180309,37.092831,-94.672371,-2.037083,2.977144,0.597497,83.609428,97.916451,-1.007765
443,339143671,-44.362885,38.370975,-96.400177,-1.080812,3.598586,0.565236,112.762794,109.646286,-3.635642
444,339160338,-43.571762,39.780331,-98.362862,0.260335,3.859579,0.268738,121.972794,121.786591,-6.538775
445,339177005,-43.163235,41.291302,-100.530083,1.311099,4.096642,-0.164313,109.300087,131.218155,-9.039089
446,339193672,-43.269398,42.844795,-102.818085,2.399518,4.969314,-1.057549,85.887794,135.156296,-9.901194
447,339210339,-43.891819,44.286640,-105.108093,3.732302,5.639982,-2.065243,57.630188,128.741058,-11.940240
448,339227006,-45.061005,45.507347,-107.334030,3.933606,6.058799,-2.328933,24.402428,115.984795,-15.657179
449,339243673,-46.518482,46.457130,-109.322350,3.855877,6.413584,-2.444625,-1.376038,96.596085,-16.426439
450,339260340,-48.040928,47.169277,-110.942139,2.875669,6.498272,-1.877725,-20.203833,75.291428,-13.206237
451,339277007,-49.374969,47.692738,-112.158638,2.126308,6.383717,-1.294150,-26.011208,55.259026,-8.463150
452,339293674,-50.369846,48.092850,-112.955811,1.794558,5.939908,-0.744939,-23.928499,37.426373,-1.797307
453,339310341,-50.996899,48.407341,-113.363701,2.084021,5.591189,-0.411090,-19.085859,21.992149,4.786625
454,339327008,-51.290482,48.630550,-113.395714,2.588922,5.306976,-0.306540,-15.897544,6.817899,10.138935
455,339343675,-51.400261,48.724140,-113.116470,3.126537,4.998905,-0.343932,-18.888634,-7.710065,11.799070
456,339360342,-51.441032,48.665329,-112.561729,3.028716,4.630312,-0.444113,-27.171438,-21.956758,11.440089
457,339377009,-51.370701,48.493271,-111.792786,2.319730,4.067069,-0.406672,-30.094135,-32.876884,11.461955
458,339393676,-51.242100,48.252586,-110.881035,1.748722,3.510536,-0.243342,-32.897724,-39.974857,11.935323
459,339410343,-50.985485,47.965771,-109.860619,1.241883,3.052588,-0.040630,-29.900734,-45.209831,12.753695
460,339427010,-50.535423,47.655037,-108.743233,1.075439,2.881962,0.097072,-22.388847,-49.249340,14.521391
461,339443677,-49.880539,47.317986,-107.525276,1.230129,2.908842,0.052838,-14.297485,-53.473660,16.545774
462,339460344,-49.081554,46.928196,-106.211685,1.336881,3.123985,-0.160346,-9.539873,-58.546707,17.539064
463,339477011,-48.213615,46.446682,-104.804443,1.313279,3.619842,-0.409552,-9.083539,-65.154732,17.057535
464,339493678,-47.327568,45.807335,-103.313904,1.241121,4.044470,-0.527043,-11.034447,-74.267456,13.727146
465,339510345,-46.485577,44.953655,-101.722237,0.734003,4.353934,-0.807137,-17.183844,-86.568207,8.897412
466,339527012,-45.626076,43.856087,-100.033051,0.158036,4.528570,-0.824179,-19.079205,-100.425545,3.298762
467,339543679,-44.503689,42.497597,-98.223343,-0.306000,4.413460,-0.559972,-6.691164,-116.218002,-1.302225
468,339560346,-42.991188,40.913223,-96.284874,-0.728728,4.039689,-0.277426,13.627362,-131.311859,-2.535518
469,339577013,-41.101501,39.118073,-94.263252,-1.236299,3.826979,-0.178469,35.635338,-144.801849,-2.674495
470,339593680,-38.873455,37.094231,-92.190804,-1.718981,3.605196,-0.309018,57.187374,-158.517120,-2.592956
471,339610347,-36.302406,34.884220,-90.118797,-1.584082,3.123716,-0.092834,81.439964,-169.040894,-0.695983
472,339627014,-33.245403,32.604282,-88.192429,-1.191510,1.988969,1.190747,119.438782,-169.801086,1.403270
473,339643681,-29.824554,30.441874,-86.402122,-0.584447,0.729009,2.377726,149.309296,-161.104080,10.666863
474,339660348,-26.348036,28.438583,-84.875824,0.324314,0.932407,2.602325,163.807007,-146.225342,14.250231
475,339677015,-23.288507,26.562323,-83.719948,1.332036,1.489006,1.690314,151.783707,-130.636292,9.062589
476,339693682,-20.801273,24.788807,-82.998672,1.725711,1.920273,0.618017,130.722397,-115.909729,-3.303279
477,339710349,-18.877420,23.036489,-82.741783,1.960355,2.288493,-0.130342,109.427689,-106.319344,-21.948042
478,339727016,-17.420952,21.283777,-82.955063,1.757301,1.923895,-0.235472,92.459419,-98.879494,-43.536419
479,339743683,-16.284683,19.536562,-83.624222,1.214839,1.368641,-0.230054,82.422112,-92.061035,-65.924927
480,339760350,-15.226548,17.808929,-84.748215,0.520214,0.729469,-0.266192,85.322433,-85.053818,-89.149345
481,339777017,-14.059194,15.999141,-86.374664,0.346973,0.224983,-0.609990,98.658257,-84.092918,-117.301796
482,339793684,-12.810089,14.213955,-88.427498,0.086866,-1.153060,-1.100068,107.286499,-79.183746,-140.056503
483,339810351,-11.347087,12.435762,-90.876251,-0.040272,-2.299096,-1.479698,121.879906,-77.038589,-161.638062
484,339827018,-9.660034,10.674421,-93.665886,-0.042762,-3.619922,-1.702052,134.984070,-76.634239,-180.015167
485,339843685,-7.810667,8.905615,-96.768501,0.090389,-5.004503,-1.701528,142.844528,-79.646675,-196.946213
486,339860352,-5.966160,7.191264,-100.055748,-0.143036,-6.717484,-0.911224,138.513321,-81.296051,-205.721802
487,339877019,-4.255317,5.549253,-103.442543,-0.494615,-7.806815,-0.216558,125.428246,-82.728363,-209.428406
488,339893686,-2.765949,4.055081,-106.789642,-1.533634,-8.741438,0.506938,106.412491,-79.809288,-204.728622
489,339910353,-1.582322,2.812949,-109.913589,-2.997234,-8.761492,1.152929,82.493629,-69.951775,-189.283401
490,339927020,-0.682640,1.793080,-112.693863,-3.492700,-7.953820,1.032677,60.942287,-60.455547,-167.339020
491,339943687,-0.079355,0.973853,-114.938316,-3.802572,-7.109968,1.038086,39.714119,-50.821121,-134.429474
492,339960354,0.198251,0.391153,-116.429726,-3.928318,-5.799074,1.486261,17.992834,-37.612690,-88.918587
493,339977021,0.093454,-0.041467,-117.129822,-3.276357,-3.941232,1.894048,-5.886505,-28.615152,-41.417660
494,339993688,-0.414717,-0.392973,-117.154274,-2.593746,-2.958034,1.739701,-30.221012,-23.631859,-1.002806
495,340010355,-1.201409,-0.684182,-116.651329,-1.953556,-2.742100,1.405886,-46.641312,-20.437841,30.454010
496,340027022,-2.093128,-0.899543,-115.738129,-1.765738,-2.544648,1.269882,-52.467785,-17.029402,54.920540
497,340043689,-2.824570,-0.987861,-114.502922,-1.910152,-2.431953,1.107239,-42.386543,-11.008551,74.333336
498,340060356,-3.149776,-0.932450,-113.012886,-1.909779,-2.617225,0.962864,-17.734671,-3.871269,89.968483
499,340077023,-2.946926,-0.575848,-111.233841,-2.284210,-2.840000,1.010238,13.854339,13.157465,108.249802
500,340093690,-2.196435,-0.155186,-109.281342,-1.260655,-3.110291,1.375668,46.052872,17.427797,118.693542
501,340110357,-1.148693,0.577582,-107.064377,-1.108515,-4.161629,1.694092,62.646805,37.534351,134.772278
502,340127024,-0.067267,1.400191,-104.733795,0.232012,-4.831843,1.698832,62.744053,45.342045,140.858704
503,340143691,0.552825,2.279079,-102.324760,1.293505,-5.433686,1.604354,32.840797,50.818840,144.771133
504,340160358,0.512965,3.128537,-99.915138,2.020211,-5.381529,1.679654,-8.930823,49.786125,144.459686
505,340177025,-0.179848,3.982450,-97.540581,2.112174,-5.365243,1.830335,-50.118694,49.129616,142.576675
506,340193692,-1.382515,4.845181,-95.249786,1.938341,-5.276782,1.577995,-82.449387,47.377346,138.262848
507,340210359,-2.935133,5.699111,-93.117767,1.837139,-4.846159,1.030933,-104.621704,43.892883,129.748840
508,340227026,-4.668259,6.584400,-91.146149,1.339934,-4.499227,0.434504,-116.355713,42.698025,121.413460
509,340243693,-6.347455,7.522283,-89.320435,0.902689,-4.183651,-0.025887,-113.915436,43.077801,114.141975
510,340260360,-7.804680,8.499674,-87.646965,0.428869,-3.847614,-0.076037,-101.141830,43.450188,106.428894
511,340277027,-8.958536,9.470253,-86.123657,0.123686,-3.255611,-0.247006,-83.222130,41.957012,98.337311
512,340293694,-9.732481,10.421480,-84.777847,0.121385,-2.536642,-0.335857,-60.101513,40.906261,88.280563
513,340310361,-10.331785,11.331144,-83.655479,0.266146,-2.201288,-0.349929,-48.383480,39.731960,75.162102
514,340327028,-11.070896,12.173096,-82.784088,0.320200,-1.932816,-0.182303,-54.714615,37.640316,60.216602
515,340343695,-11.935163,12.914573,-82.190887,0.056271,-1.216344,-0.389729,-59.303070,34.174686,43.449142
516,340360362,-12.817062,13.560115,-81.892693,-0.063760,-0.335994,-0.599097,-56.729431,31.606352,25.850632
517,340377029,-13.711420,14.154500,-81.918655,-0.300581,0.251625,-0.816128,-53.007542,32.562405,7.250434
518,340393696,-14.657687,14.843891,-82.244545,-0.785284,0.401520,-1.125789,-51.598042,42.242786,-7.680155
519,340410363,-15.755928,15.481197,-83.019096,-0.757489,0.751534,-1.251191,-53.456470,46.162582,-32.715595
520,340427030,-17.158562,16.089264,-84.223244,-1.262981,1.030430,-1.355182,-64.219627,52.178940,-55.798466
521,340443697,-18.851658,16.675154,-85.816566,-1.709213,1.569066,-1.254180,-74.335182,59.271145,-75.819099
522,340460364,-20.634903,17.266144,-87.732101,-2.510382,2.271962,-1.410279,-73.156609,67.993408,-90.946815
523,340477031,-22.407188,17.871269,-89.942848,-2.797099,2.715559,-1.822426,-66.002266,77.644348,-103.780830
524,340493698,-24.221645,18.515474,-92.396034,-3.281619,2.994474,-2.167186,-62.611710,88.309090,-112.574417
525,340510365,-26.169443,19.155193,-95.107704,-3.101486,3.815235,-2.201404,-64.034279,97.748856,-122.453766
526,340527032,-28.266512,19.729248,-98.046700,-2.606365,4.564590,-1.929410,-66.816689,104.142105,-131.574203
527,340543699,-30.301661,20.264214,-101.144257,-1.634853,4.550949,-0.428590,-58.239822,110.874634,-136.081985
528,340560366,-32.207859,20.827085,-104.288185,-0.854467,4.154901,1.787106,-47.854141,117.964104,-132.936050
529,340577033,-34.057991,21.521444,-107.470474,0.323371,4.529123,2.264200,-41.725597,129.644226,-125.784370
530,340593700,-36.007999,22.275511,-110.665276,1.142280,4.953894,0.955703,-45.191631,136.577744,-119.122108
531,340610367,-38.085892,22.954929,-113.745613,1.570527,5.288645,-0.458391,-53.286587,132.753601,-111.075111
532,340627034,-40.163132,23.486383,-116.521866,2.117221,5.726565,-0.648080,-58.648998,118.762787,-98.102211
533,340643701,-41.867428,23.885551,-118.771553,2.431924,5.654088,1.111132,-47.732597,96.619408,-77.017349
534,340660368,-42.923420,24.222572,-120.361816,2.646631,5.514786,2.574157,-24.174177,71.108696,-50.187721
535,340677035,-43.177956,24.603506,-121.353897,3.029287,5.090533,2.891164,9.619607,51.124977,-23.484760
536,340693702,-42.666466,25.098269,-121.798363,2.940670,4.632030,2.459948,42.186214,35.639362,3.011337
537,340710369,-41.626080,25.664553,-121.730881,3.341228,4.304591,1.527719,60.977123,20.155903,26.023577
538,340727036,-40.395157,26.191921,-121.197777,3.782131,3.785286,0.451175,60.155224,2.413832,42.982010
539,340743703,-39.281086,26.618643,-120.265114,3.697088,3.445692,-0.252202,42.240879,-15.038970,55.394489
540,340760370,-38.497932,26.842264,-119.036018,3.466806,3.110354,-0.609166,14.103745,-33.498161,60.191467
541,340777037,-38.134323,26.865000,-117.613274,2.821424,2.633931,-0.718580,-16.462025,-48.739914,61.096874
542,340793704,-38.118786,26.747875,-116.052391,1.752761,2.253807,-0.472295,-41.021904,-59.729187,61.912735
543,340810371,-38.151413,26.607361,-114.387299,0.081928,2.142125,-0.186522,-46.531429,-64.350014,65.502548
544,340827038,-37.951530,26.537062,-112.663116,-0.463765,1.937727,-0.340256,-34.004875,-62.942905,70.750366
545,340843705,-37.468788,26.572714,-110.906387,0.042643,1.915533,-0.598514,-17.879189,-58.570820,76.387871
546,340860372,-36.907825,26.668232,-109.153412,1.377898,1.987238,-0.676736,-13.196406,-54.866497,78.867668
547,340877039,-36.485855,26.786201,-107.423904,2.521876,2.042927,-0.296981,-21.076075,-52.306084,79.035927
548,340893706,-36.315994,26.898060,-105.748352,2.812830,2.389057,0.218246,-34.928699,-50.423271,76.668884
549,340910373,-36.291313,26.990185,-104.154541,1.791386,2.638512,0.674764,-41.579262,-48.613991,72.459969
550,340927040,-36.160183,27.060764,-102.682487,0.839542,2.860571,0.742462,-31.995205,-45.675354,66.454659
551,340943707,-35.785072,27.111662,-101.315720,0.529214,3.119913,0.571301,-14.565486,-43.012367,61.365185
552,340960374,-35.239441,27.089615,-100.048584,1.029223,3.506882,0.325553,-1.630084,-42.989208,54.805790
553,340977041,-34.741646,26.894983,-98.878044,1.561651,3.685924,0.141316,-1.742497,-48.054115,45.056839
554,340993708,-34.484215,26.490862,-97.833946,1.591605,3.548866,0.274211,-12.429973,-54.349216,32.771957
555,341010375,-34.501251,25.879627,-96.950394,0.938909,3.240533,0.328367,-24.150623,-59.769348,18.921675
556,341027042,-34.718639,25.077106,-96.244606,0.030596,2.902275,0.044799,-30.995672,-63.947803,4.594097
557,341043709,-35.030907,24.055922,-95.733727,-0.297775,2.801944,-0.716720,-31.217285,-68.811874,-11.684113
558,341060376,-35.441833,22.762880,-95.397713,-0.115552,2.872646,-1.805051,-32.399750,-76.646561,-29.172346
559,341077043,-36.000904,21.131079,-95.210907,-0.231980,2.548463,-2.703065,-37.466061,-88.164955,-48.242226
560,341093710,-36.653038,19.141247,-95.159660,-0.443627,2.158411,-3.248281,-39.917580,-100.503632,-67.922287
561,341110377,-37.263573,16.793884,-95.215897,-1.284836,1.467192,-3.078397,-35.320210,-113.219757,-86.765419
562,341127044,-37.691154,14.240454,-95.431892,-2.416179,-0.019161,-2.209224,-21.915180,-116.593941,-102.644089
563,341143711,-37.618698,11.572868,-95.831177,-2.619394,-0.438980,-1.900763,9.968421,-115.055862,-115.782608
564,341160378,-36.756584,8.830726,-96.358856,-2.033975,-0.560661,-2.111188,57.597813,-114.843201,-123.785271
565,341177045,-35.324516,6.020664,-97.028900,-1.023314,-0.882601,-2.323941,91.376274,-115.480179,-130.951645
566,341193712,-33.679440,3.127406,-97.962471,-0.215672,-1.725280,-1.732053,103.424019,-114.035950,-143.858353
567,341210379,-31.895874,0.256024,-99.298111,0.120878,-2.656407,-0.632364,109.629089,-104.052895,-160.148010
568,341227046,-29.771580,-2.444619,-101.116478,0.235191,-3.836567,0.185887,125.616058,-85.814339,-176.226837
569,341243713,-27.245073,-4.897894,-103.407951,0.268693,-4.825455,0.611571,143.019150,-66.442833,-190.332382
570,341260380,-24.418030,-7.169500,-106.128609,-0.013143,-5.746720,0.961900,152.684708,-54.511803,-205.007782
571,341277047,-21.497252,-9.242640,-109.165672,-0.693828,-6.863909,1.789312,149.450272,-46.746677,-214.089737
572,341293714,-18.575443,-11.054361,-112.353241,-1.581658,-7.961165,3.342886,141.823608,-40.176598,-213.604614
573,341310381,-15.813739,-12.469737,-115.394234,-2.565795,-8.352879,4.933317,128.734222,-30.874542,-195.236679
574,341327048,-13.450997,-13.490086,-117.964592,-2.892778,-7.485829,5.400114,107.370201,-23.824202,-160.350159
575,341343715,-11.818665,-14.225547,-119.842354,-2.746035,-6.074046,4.346950,71.216438,-21.682278,-115.861946
576,341360382,-11.132932,-14.731911,-120.868446,-2.193115,-4.514030,3.259255,26.021580,-20.460852,-63.934902
577,341377049,-11.229132,-15.006156,-120.991417,-2.142712,-2.936177,3.009462,-7.395306,-17.301174,-9.656514
578,341393716,-11.744728,-15.037468,-120.323097,-2.248571,-2.422163,2.726376,-20.270481,-12.090726,38.107998
579,341410383,-12.384639,-14.874033,-119.048515,-1.854024,-2.695966,2.443274,-18.384237,-8.388092,74.831665
580,341427050,-13.078159,-14.444028,-117.436104,-1.569350,-2.900364,2.141701,-16.851368,2.005780,97.512268
581,341443717,-13.595152,-13.760800,-115.678131,-1.201020,-2.644431,1.911087,-5.041821,13.759067,109.528564
582,341460384,-13.939738,-13.029249,-113.791359,-0.453354,-2.303563,1.375993,5.828479,13.894230,117.940720
583,341477051,-14.224532,-12.288468,-112.058403,0.619355,-2.796298,0.936048,5.976029,15.899168,109.752312
584,341493718,-14.791176,-11.527515,-110.345604,0.591236,-3.439529,0.611067,-12.515679,16.485634,109.320450
585,341510385,-15.623865,-10.773710,-108.613663,0.773305,-3.637340,0.575750,-29.586031,14.377233,110.787384
586,341527052,-16.669281,-10.032010,-106.844284,0.683816,-3.752184,0.773147,-43.277225,11.189291,113.209488
587,341543719,-17.669907,-9.197762,-105.045158,-0.248115,-3.921485,0.989161,-41.730160,13.888705,117.004395
588,341560386,-18.333529,-8.195142,-103.254311,-0.515071,-4.307062,1.295830,-23.294968,21.871613,120.147568
589,341577053,-18.761499,-7.020442,-101.492531,-0.731240,-4.997807,1.443388,-11.408247,30.980629,122.297684
590,341593720,-19.103407,-5.673639,-99.755478,-0.591413,-5.470482,1.243454,-8.717224,40.320538,124.741470
591,341610387,-19.456896,-4.235600,-98.034592,0.031528,-4.762901,0.827423,-12.014721,44.975903,126.132805
592,341627054,-19.868671,-2.724386,-96.360550,0.098766,-4.267719,0.534928,-18.331089,49.151741,125.471092
593,341643721,-20.325455,-1.106904,-94.745026,-0.231277,-4.173332,0.325901,-23.887009,55.359100,124.872826
594,341660388,-20.843184,0.563039,-93.283569,0.026314,-3.785517,0.134699,-30.366550,60.482712,117.866989
595,341677055,-21.567921,2.264696,-92.007118,-0.041447,-3.610362,0.224881,-45.090015,65.008659,108.862640
596,341693722,-22.494808,3.976547,-90.932289,-0.106263,-3.068588,0.232196,-58.837116,68.575943,98.778152
597,341710389,-23.613226,5.674436,-90.086472,-0.047218,-2.245196,0.369217,-71.086075,71.456406,86.986473
598,341727056,-24.883209,7.345157,-89.528564,0.094914,-1.562641,0.058296,-79.704933,75.266243,72.055267
599,341743723,-26.285200,8.990802,-89.299110,-0.001718,-0.865997,-0.240775,-85.786331,80.699844,55.496479
600,341760390,-27.850430,10.611266,-89.401520,-0.698775,-0.618870,-0.325089,-92.577766,86.859444,39.420135
601,341777057,-29.315392,12.205541,-89.817322,-1.513976,-0.277504,-0.317570,-82.672485,93.223206,24.859364
602,341793724,-30.499096,13.793645,-90.501541,-1.917499,0.611925,-0.349335,-61.497734,100.061874,13.406291
603,341810391,-31.477484,15.375400,-91.516777,-1.302541,1.458528,-0.513339,-43.072815,109.229469,-1.102872
604,341827058,-32.507477,16.933189,-92.837425,-1.435619,1.682861,-0.404250,-39.460400,117.107597,-14.462859
605,341843725,-33.566322,18.429379,-94.428955,-1.362980,2.353108,-0.253086,-34.233864,122.364189,-26.758574
606,341860392,-34.563259,19.889284,-96.197830,-1.444299,2.960299,-0.227235,-24.690901,126.218964,-33.415886
607,341877059,-35.443626,21.345690,-98.151428,-0.879253,3.400687,-0.676341,-11.254709,132.003372,-39.167549
608,341893726,-36.332340,22.765366,-100.263924,-0.247701,3.694616,-1.284635,-5.435559,135.361115,-44.673061
609,341910393,-37.357056,24.101160,-102.521812,0.015911,4.037710,-1.529677,-7.316250,136.155411,-50.844646
610,341927060,-38.523033,25.316845,-104.895966,0.378739,4.317170,-1.563680,-10.119380,134.565414,-56.648796
611,341943727,-39.813873,26.416567,-107.349457,1.085883,4.566175,-1.827975,-12.933720,132.287613,-60.460194
612,341960394,-41.319939,27.329330,-109.839699,1.909836,4.873225,-2.344614,-22.533470,125.743591,-65.071907
613,341977061,-43.101105,27.975317,-112.345467,2.272253,5.040430,-2.656122,-36.800861,115.641617,-72.042786
614,341993728,-44.990433,28.352030,-114.781006,1.715921,4.805910,-2.096700,-44.096245,103.268646,-76.337723
615,342010395,-46.689186,28.552996,-117.114082,1.108751,4.516792,-1.332559,-34.944641,94.145439,-76.545975
616,342027062,-47.984940,28.666567,-119.323227,1.298748,4.387828,-0.888655,-13.991000,87.631271,-73.303543
617,342043729,-48.912010,28.746637,-121.351074,1.696508,4.301414,-0.582359,3.099313,80.490440,-66.652344
618,342060396,-49.510960,28.792940,-123.129311,2.201985,3.942196,-0.111991,15.696186,70.061760,-58.460648
619,342077063,-49.875851,28.807676,-124.600929,2.571311,3.387658,0.414456,20.924965,57.011673,-48.853176
620,342093730,-50.062550,28.792294,-125.724152,2.608270,2.923235,0.908352,21.546827,42.056011,-38.171177
621,342110397,-50.034595,28.774813,-126.485771,2.111141,2.571022,1.325077,23.959112,27.453617,-26.006432
622,342127064,-49.762218,28.802359,-126.899094,1.625963,2.505427,1.530496,28.566374,15.113790,-12.225195
623,342143731,-49.252964,28.885065,-126.978577,1.535941,2.306709,1.578093,33.138462,3.819797,1.567663
624,342160398,-48.639603,28.999456,-126.757866,1.865251,1.911374,1.364699,30.674461,-6.812788,13.288057
625,342177065,-48.091831,29.154987,-126.267509,1.985547,1.578336,1.181801,18.848663,-15.601631,24.555529
626,342193732,-47.690563,29.356474,-125.541199,2.180549,1.512136,1.088084,3.061165,-22.684845,34.956970
627,342210399,-47.473106,29.616917,-124.602394,2.276111,1.831429,0.873711,-14.398319,-28.244692,45.100174
628,342227066,-47.393364,29.960520,-123.452827,1.868262,2.548365,0.759901,-29.204268,-32.730286,56.158615
629,342243733,-47.280262,30.424809,-122.081993,1.351595,3.234465,0.776818,-34.297958,-35.989555,69.139282
630,342260400,-47.004047,31.022234,-120.473351,1.122873,3.706361,0.463437,-32.460945,-39.036850,83.183105
631,342277067,-46.578484,31.708261,-118.636726,1.492670,3.911949,0.196660,-31.545734,-43.002975,94.890427
632,342293734,-46.128048,32.410896,-116.614525,2.018907,3.986480,0.082840,-37.099747,-47.916500,101.937836
633,342310401,-45.798046,33.024155,-114.462418,2.508774,4.153864,-0.224520,-49.716579,-55.133793,102.423302
634,342327068,-45.688843,33.479820,-112.276001,2.455855,4.380722,-0.635197,-65.103462,-62.109806,96.589455
635,342343735,-45.641594,33.718330,-110.098549,1.444181,4.735895,-0.567053,-69.187775,-70.451134,86.722908
636,342360402,-45.470665,33.709129,-107.947609,0.803279,4.576599,-0.226140,-61.107075,-79.648903,75.208351
637,342377069,-45.161278,33.452713,-105.867210,0.665474,4.424216,-0.078123,-50.212395,-87.379288,62.617462
638,342393736,-44.691723,32.928188,-103.918320,0.555142,4.379806,-0.276650,-35.575592,-94.015465,47.483734
639,342410403,-44.087891,32.146397,-102.180862,0.248268,3.799111,-0.569514,-19.577290,-97.628784,30.408064
640,342427070,-43.618301,31.155926,-100.699394,0.292785,2.962927,-0.608745,-18.207386,-97.913643,13.808587
641,342443737,-43.451660,29.966667,-99.485062,0.200585,2.761030,-0.460012,-26.789728,-97.583916,-3.250792
642,342460404,-43.605907,28.535975,-98.512657,-0.042468,2.725755,-0.302593,-37.507515,-99.942482,-21.801022
643,342477071,-43.912273,26.887854,-97.796478,-0.944294,2.284640,-0.209476,-38.108059,-100.381348,-40.508987
644,342493738,-43.903221,25.112316,-97.373497,-2.170007,1.781928,-0.085584,-10.327621,-95.221191,-57.041035
645,342510405,-43.314404,23.297571,-97.245445,-2.887539,0.936304,-0.030279,32.434155,-86.333969,-69.616135
646,342527072,-42.179630,21.507566,-97.409477,-2.705240,0.366924,-0.379734,72.093727,-75.360542,-79.165512
647,342543739,-40.590874,19.711817,-97.844742,-2.051043,0.271432,-0.607362,104.776794,-67.349640,-89.156151
648,342560406,-38.705841,17.835865,-98.543633,-1.182310,0.129288,-0.831271,126.858978,-64.007347,-101.965034
649,342577073,-36.641930,15.816987,-99.534889,-0.626139,-0.402293,-1.032305,141.311798,-63.762440,-118.664894
650,342593740,-34.440899,13.658580,-100.864288,-0.377703,-1.267035,-1.383195,152.613251,-63.214188,-137.618073
651,342610407,-32.087547,11.372186,-102.558022,-0.329212,-2.097888,-1.988577,163.478607,-62.964645,-157.763489
652,342627074,-29.453264,8.928449,-104.608757,-0.092552,-3.058196,-2.600708,179.988846,-66.689850,-178.640869
653,342643741,-26.647991,6.385226,-106.987923,-0.114981,-4.890372,-2.328151,187.576492,-70.798012,-196.173187
654,342660408,-23.772089,3.853256,-109.702728,-0.926755,-7.225245,-0.994962,187.321564,-70.990631,-211.043381
655,342677075,-20.885475,1.551452,-112.634415,-1.640162,-9.186528,0.955644,181.723419,-63.629375,-214.536606
656,342693742,-18.074617,-0.374471,-115.526337,-1.884960,-9.986534,2.608763,170.674103,-53.697510,-201.630676
657,342710409,-15.631948,-1.884594,-118.124397,-2.212706,-9.586494,3.062796,143.742401,-44.135918,-174.932877
658,342727076,-13.962996,-3.113894,-120.239037,-2.031401,-8.313015,2.678634,94.874191,-41.527363,-140.882690
659,342743743,-13.248957,-4.038743,-121.731140,-1.849273,-6.648358,2.170090,37.534794,-35.491554,-99.381210
660,342760410,-13.275211,-4.581343,-122.461151,-1.982788,-4.908327,2.040366,-4.590472,-24.234241,-49.457588
661,342777077,-13.679125,-4.775678,-122.438927,-1.989130,-3.589297,1.777263,-23.851482,-14.204932,-0.898957
662,342793744,-14.126781,-4.703070,-121.800003,-1.400125,-3.189963,1.358099,-23.418886,-7.497378,38.658382
663,342810411,-14.426560,-4.435549,-120.726105,-0.989631,-3.100863,1.321537,-12.580713,-2.823679,66.734116
664,342827078,-14.457798,-4.003042,-119.418800,-0.756576,-3.158543,1.143160,4.166422,3.087474,82.755577
665,342843745,-14.128566,-3.466049,-118.017174,-0.322507,-3.044930,0.481139,25.498339,7.975766,89.811752
666,342860412,-13.545411,-2.740500,-116.523987,-0.567270,-3.671058,0.054683,40.102108,18.353378,97.809517
667,342877079,-12.564765,-1.981336,-114.960419,0.100632,-3.329830,-0.220759,62.961700,20.685596,102.137138
668,342893746,-11.357416,-1.087793,-113.282196,-0.184540,-3.848675,0.046104,75.390694,29.080469,110.120605
669,342910413,-10.005285,-0.148537,-111.529839,-0.232310,-4.637608,0.323401,82.511467,33.393265,114.296165
670,342927080,-8.619287,0.792401,-109.696571,-0.015204,-5.038349,0.346445,82.788185,35.425636,118.215866
671,342943747,-7.399717,1.694721,-107.776779,-0.046699,-5.747404,0.460686,70.919380,35.088348,122.115463
672,342960414,-6.448887,2.545633,-105.770279,-0.104049,-6.082377,0.555200,52.840466,33.715111,126.114975
673,342977081,-5.835182,3.329966,-103.735893,0.028347,-6.094568,0.657070,30.812609,31.298933,126.769379
674,342993748,-5.675101,4.051851,-101.738388,-0.167070,-6.102717,0.790625,2.139736,28.669561,123.868103
675,343010415,-5.929407,4.729466,-99.813232,-0.485286,-5.359965,0.841564,-23.847223,26.389120,119.218887
676,343027082,-6.524935,5.417963,-97.982033,-1.033234,-4.695045,0.874262,-45.189373,26.793091,113.808182
677,343043749,-7.287354,6.170124,-96.298912,-1.287779,-4.176152,0.660316,-55.674992,30.331060,105.711365
678,343060416,-8.114524,6.986859,-94.810951,-1.280543,-3.275549,0.486959,-59.587425,34.298847,95.000122
679,343077083,-9.040829,7.862103,-93.566116,-1.354592,-2.508300,0.293581,-64.951508,38.511288,81.612000
680,343093750,-10.138175,8.768001,-92.573059,-1.457869,-1.648886,0.367595,-74.172401,41.410564,67.739723
681,343110417,-11.497680,9.661439,-91.896263,-1.012009,-0.720114,0.237708,-87.781776,42.772789,49.990868
682,343127084,-13.040752,10.561806,-91.551651,-1.064899,0.098394,-0.157494,-95.919540,46.105835,31.935949
683,343143751,-14.642988,11.460016,-91.566406,-1.117946,1.118256,-0.723043,-95.667336,50.176407,12.622638
684,343160418,-16.234253,12.361703,-91.946556,-1.623438,1.783533,-1.299141,-90.467239,55.726036,-6.530309
685,343177085,-17.710222,13.236835,-92.731339,-2.039234,2.175754,-1.701516,-77.822212,61.252808,-28.004534
686,343193752,-18.832211,14.171408,-93.863525,-2.434795,2.433987,-1.676535,-50.920162,71.556885,-44.492973
687,343210419,-19.376520,15.250291,-95.253738,-2.226435,3.000851,-1.044971,-11.168285,85.181870,-54.450264
688,343227086,-19.505812,16.459690,-96.872673,-1.307032,3.420870,0.104994,19.087376,97.126846,-63.359375
689,343243753,-19.592388,17.762535,-98.705032,-0.813616,3.725988,0.568560,27.460892,106.414963,-72.263153
690,343260420,-19.903652,19.134464,-100.776955,-0.036040,4.102415,0.015344,20.971930,114.898521,-82.581779
691,343277087,-20.580580,20.387165,-103.089691,0.961248,4.705521,-0.852362,6.607406,113.268921,-95.922508
692,343293754,-21.763407,21.553028,-105.573486,1.189910,4.316443,-0.902628,-17.325363,113.043190,-103.908943
693,343310421,-23.204731,22.712011,-108.133568,0.586468,4.180101,0.085536,-28.300821,116.208374,-104.287468
694,343327088,-24.647009,23.844969,-110.749680,1.225104,4.551421,0.720119,-24.198715,118.141357,-103.642120
695,343343755,-26.107201,24.950911,-113.372162,1.645480,4.481335,0.381531,-22.313910,118.882751,-100.446358
696,343360422,-27.483877,26.021654,-115.910500,1.366638,4.832406,-0.395819,-16.768715,116.827454,-93.175148
697,343377089,-28.549524,27.009274,-118.273331,1.814973,5.084065,-0.394754,-0.356092,109.394691,-83.583107
698,343393756,-29.285402,27.864571,-120.328156,2.384529,4.855976,0.048353,12.940986,95.313240,-70.394112
699,343410423,-29.777706,28.569595,-121.998024,2.892888,4.437224,0.519269,18.116497,77.792877,-55.402481
700,343427090,-30.084856,29.155821,-123.258659,3.193864,4.144427,0.857877,18.364956,60.994553,-39.300774
701,343443757,-30.262426,29.683750,-124.141151,2.917100,4.049668,0.828542,15.637037,48.015293,-23.408287
702,343460424,-30.332438,30.227734,-124.694504,2.348229,4.068496,0.565942,12.660548,40.130871,-7.837357
703,343477091,-30.328901,30.853779,-124.967995,1.966783,4.104743,0.192391,8.835217,36.984489,7.298319
704,343493758,-30.289656,31.561737,-124.992668,1.894768,4.018289,-0.128398,3.409230,34.723995,20.862324
705,343510425,-30.247772,32.319412,-124.763977,1.837824,3.769575,-0.184737,-4.453531,30.795263,33.484360
706,343527092,-30.192421,33.090153,-124.236282,1.645433,3.321875,0.142419,-13.492885,23.940777,46.803280
707,343543759,-30.112886,33.845154,-123.398499,1.443436,2.975933,0.516746,-22.653559,15.488624,59.516037
708,343560426,-29.993284,34.579231,-122.279198,1.304833,2.637209,0.807493,-30.287897,7.679597,70.622322
709,343577093,-29.853477,35.301292,-120.907494,1.445153,2.541334,0.726847,-38.453644,1.254859,80.575325
710,343593760,-29.715984,36.005363,-119.318245,1.770288,2.713013,0.555265,-47.037533,-4.471292,88.713715
711,343610427,-29.600998,36.654564,-117.544182,2.605589,3.077385,0.356874,-55.868603,-11.238603,94.269058
712,343627094,-29.602457,37.159821,-115.607483,3.542361,3.716160,0.219053,-69.577332,-22.202049,96.228539
713,343643761,-29.838631,37.412029,-113.607246,4.010992,4.242797,0.170832,-86.586761,-36.868767,90.877487
714,343660428,-30.283495,37.388432,-111.616760,3.247286,4.321817,0.285317,-98.950356,-51.432175,81.839523
715,343677095,-30.734779,37.135433,-109.728714,2.026433,4.135537,0.519959,-95.388672,-61.539425,70.387482
716,343693762,-31.048460,36.717518,-107.982094,1.080859,4.101946,0.779317,-81.512482,-67.227936,59.422470
717,343710429,-31.205431,36.119514,-106.426750,0.848931,4.442969,0.893847,-64.556099,-72.240021,46.135025
718,343727096,-31.334019,35.293236,-105.069344,0.930358,4.741381,0.604095,-54.988316,-79.421013,31.186190
719,343743763,-31.505466,34.156662,-103.909729,0.931386,4.847539,0.060386,-49.661495,-90.735001,13.630825
720,343760430,-31.674507,32.684486,-102.964050,0.795338,4.324444,-0.596478,-41.139412,-102.790215,-5.555212
721,343777097,-31.876650,30.934145,-102.218246,-0.000540,3.245426,-0.724779,-35.458771,-112.056557,-22.611200
722,343793764,-32.268158,28.973785,-101.675613,-1.207139,1.909382,-0.614779,-39.492832,-117.410271,-38.190617
723,343810431,-32.717079,26.824703,-101.316490,-1.968648,1.554854,-0.264823,-36.760998,-121.757683,-52.843636
724,343827098,-32.859524,24.489107,-101.122459,-2.292794,1.286192,-0.327504,-13.329815,-126.263367,-66.701126
725,343843765,-32.400963,22.039654,-101.150284,-2.149620,0.978326,-0.884890,28.433691,-125.720261,-80.169220
726,343860432,-31.279600,19.494099,-101.503777,-1.677537,0.715779,-2.171949,75.060768,-122.072624,-97.045341
727,343877099,-29.566669,16.845888,-102.202950,-1.152903,-0.506968,-3.456223,116.115570,-119.623459,-114.447906
728,343893766,-27.618723,14.081314,-103.158096,-0.560189,-2.177476,-3.503758,132.417603,-122.004936,-127.489563
729,343910433,-25.822121,11.087370,-104.436180,-0.052507,-3.939690,-2.638897,124.764839,-129.587173,-147.218796
730,343927100,-24.308838,8.024940,-106.112343,-0.665878,-5.633856,-1.496727,107.757874,-127.191704,-167.265564
731,343943767,-22.575981,5.077498,-108.243469,-2.071659,-6.630393,-0.881674,118.821320,-114.455566,-186.476212
732,343960434,-20.105463,2.365989,-110.770935,-2.322407,-6.802182,-1.228980,158.324310,-99.185295,-199.721207
733,343977101,-16.847256,-0.109421,-113.580009,-1.371761,-7.601652,-1.046073,199.046753,-90.164490,-206.454330
734,343993768,-13.301085,-2.297956,-116.518013,-0.992126,-9.170957,0.779716,209.299103,-83.635071,-203.869690
735,344010435,-10.166101,-4.096924,-119.367928,-2.008525,-9.888900,2.750128,178.803848,-73.612366,-188.636551
736,344027102,-7.965112,-5.545539,-121.865822,-2.558130,-8.917841,3.404701,119.723747,-64.920837,-160.671890
737,344043769,-6.964280,-6.683668,-123.822319,-2.300923,-7.204183,3.677812,47.818764,-55.139210,-124.091095
738,344060436,-7.204735,-7.489752,-124.964638,-2.450274,-4.844061,3.535777,-22.607937,-42.181534,-72.938011
739,344077103,-8.302050,-8.011491,-125.187027,-2.461074,-2.887298,2.338002,-67.365677,-31.791458,-16.799524
740,344093770,-9.606215,-8.310980,-124.588882,-1.795428,-2.281694,1.747739,-72.881599,-25.822918,32.825520
741,344110437,-10.792818,-8.392702,-123.434769,-1.544944,-2.301825,1.850831,-60.861073,-19.490984,67.095001
742,344127104,-11.670719,-8.293344,-122.093269,-1.108756,-2.550063,1.645399,-40.718258,-12.188078,79.807762
743,344143771,-12.142183,-7.931492,-120.649628,-1.175690,-2.805084,1.265806,-15.790684,1.038119,88.920715
744,344160438,-12.113608,-7.314394,-119.152512,-0.621309,-2.866352,0.788048,13.901405,14.989201,95.363121
745,344177105,-11.835695,-6.476331,-117.530754,0.025619,-3.396379,0.712713,28.624332,26.650221,105.474060
746,344193772,-11.715425,-5.698310,-115.757118,0.880130,-4.065208,0.759912,18.764675,21.617004,113.660553
747,344210439,-11.999487,-4.936375,-113.987000,0.868904,-4.973240,1.057608,-6.944083,20.537731,113.429726
748,344227106,-12.769710,-4.197692,-112.148582,0.633912,-5.361579,0.958016,-37.178757,17.248384,117.447235
749,344243773,-13.888689,-3.446052,-110.264030,0.220193,-5.421514,0.854422,-59.355465,15.431720,120.727844
750,344260440,-15.089254,-2.650680,-108.341667,-0.110658,-5.164463,0.971636,-65.658066,14.964314,124.008751
751,344277107,-16.174334,-1.789540,-106.493408,-0.314786,-5.369913,1.117702,-60.570568,17.494274,121.196312
752,344293774,-17.126480,-0.816362,-104.758247,-0.490411,-5.331841,1.022893,-54.524910,23.733845,117.017982
753,344310441,-18.095177,0.283170,-103.137260,-0.545317,-5.137963,0.798957,-57.432030,31.088804,113.237617
754,344327108,-19.163418,1.460500,-101.654823,-0.241584,-4.575912,0.587458,-65.209045,36.184669,107.422180
755,344343775,-20.381275,2.611371,-100.381599,0.091706,-3.893403,0.496183,-75.544388,36.827801,95.793495
756,344360442,-21.717266,3.771586,-99.292923,-0.359816,-3.559608,0.708029,-83.554390,39.230011,86.469978
757,344377109,-23.075367,5.013019,-98.412071,-1.378181,-3.359902,0.886514,-85.289253,46.488674,77.707779
758,344393776,-24.351742,6.347256,-97.813416,-1.625065,-2.857399,0.597534,-79.887070,56.631886,65.538994
759,344410443,-25.556850,7.752401,-97.496376,-1.692173,-2.259119,0.205182,-74.383797,66.192070,53.319241
760,344427110,-26.651426,9.150783,-97.451942,-1.760771,-1.362489,0.072364,-65.803558,71.906738,39.929699
761,344443777,-27.754433,10.513937,-97.663124,-1.766663,-0.724030,0.322744,-63.747803,76.173187,26.937841
762,344460444,-28.804985,11.861147,-98.164597,-2.216751,-0.141455,0.426478,-56.921490,82.886780,12.965405
763,344477111,-29.803593,13.205374,-98.987038,-1.924532,0.828677,0.028392,-48.928169,91.620239,-1.862293
764,344493778,-30.789837,14.517371,-100.163872,-1.461150,1.704197,-0.541275,-41.974876,100.251427,-18.808836
765,344510445,-31.914469,15.731173,-101.712021,-1.313788,2.327324,-1.112047,-42.957008,106.530502,-38.011848
766,344527112,-33.247635,16.799646,-103.621758,-1.115169,2.934599,-1.697283,-47.608688,110.917648,-57.496979
767,344543779,-34.672260,17.736908,-105.901009,-0.784583,3.411978,-1.885873,-44.593758,117.239212,-76.235031
768,344560446,-36.110683,18.586040,-108.548157,-0.935110,3.619527,-1.830775,-36.511387,126.560692,-92.856934
769,344577113,-37.476662,19.411320,-111.557877,-1.442175,3.878080,-1.698560,-22.884310,139.517059,-106.413742
770,344593780,-38.579552,20.252634,-114.896935,-2.216585,4.432076,-1.677387,2.079313,153.441452,-116.701843
771,344610447,-39.258625,21.154152,-118.479164,-2.436102,4.977892,-1.889956,35.524483,165.946976,-121.797806
772,344627114,-39.613888,22.083256,-122.143440,-1.773664,5.348822,-1.634042,59.966404,170.426514,-121.807449
773,344643781,-39.988026,22.882156,-125.795799,-0.163059,5.374287,-1.205532,61.635887,163.964157,-124.242798
774,344660448,-40.689709,23.451696,-129.333450,1.395258,4.758484,-0.676334,41.695919,149.872543,-125.989182
775,344677115,-41.867535,23.798096,-132.631973,1.919066,4.406149,-0.221087,8.941017,132.739883,-121.930817
776,344693782,-43.348911,23.964983,-135.618484,1.903679,4.480475,0.291762,-16.038465,115.778687,-113.202171
777,344710449,-44.722271,24.068361,-138.222015,1.618868,4.970319,0.993292,-18.525810,101.116798,-97.667290
778,344727116,-45.592907,24.196970,-140.366821,2.145118,5.129228,1.152223,0.671500,86.173645,-76.754082
779,344743783,-45.891262,24.363487,-142.029617,3.374947,4.790708,0.984332,23.419703,69.552292,-55.733738
780,344760450,-45.891201,24.491920,-143.207764,4.755234,3.734658,0.681880,29.536657,49.012310,-38.700253
781,344777117,-45.907669,24.550442,-143.917053,5.413013,2.630772,0.704568,16.977083,27.673595,-23.878891
782,344793784,-46.066345,24.573368,-144.187973,5.103570,2.007308,1.084939,-2.462688,9.006385,-8.758269
783,344810451,-46.344654,24.593163,-144.081787,4.622362,1.746588,1.210902,-19.049435,-5.949505,5.378131
784,344827118,-46.667725,24.647028,-143.676758,4.009573,1.621766,1.183071,-29.211786,-16.395067,18.043102
785,344843785,-46.919163,24.771181,-143.057190,3.259607,1.649664,1.040806,-30.330681,-22.113602,29.031162
786,344860452,-47.020985,25.017960,-142.257492,2.479086,1.733657,1.011362,-26.015011,-24.311415,40.993454
787,344877119,-47.009380,25.393564,-141.301773,1.630048,2.032697,1.110977,-23.433100,-25.193012,52.325081
788,344893786,-46.884735,25.877657,-140.204559,1.162882,2.387830,1.121338,-20.712057,-26.147026,62.202621
789,344910453,-46.677551,26.459152,-138.944000,0.839791,2.640236,1.001370,-20.631651,-28.185843,72.369499
790,344927120,-46.447620,27.095739,-137.510086,0.654917,2.851939,0.789744,-24.672211,-32.126644,81.004921
791,344943787,-46.175720,27.802364,-135.869675,-0.396967,3.172269,0.897355,-28.761858,-36.492325,91.445007
792,344960454,-45.708958,28.639027,-133.992401,-1.514889,3.514175,1.050832,-24.961395,-39.038628,105.546928
793,344977121,-44.931778,29.653803,-131.838882,-1.974521,3.508630,1.289515,-16.004005,-40.059116,123.101578
794,344993788,-43.958416,30.820293,-129.367157,-1.579853,3.194978,1.232194,-15.985171,-42.389137,140.941742
795,345010455,-42.977066,32.067066,-126.552246,-0.633963,2.652470,1.157108,-28.929827,-47.482262,156.501556
796,345027122,-41.921906,33.339310,-123.368164,-0.088907,2.631027,1.085495,-39.619347,-54.829987,170.599915
797,345043789,-40.672062,34.562023,-119.822075,0.049128,2.805375,0.619963,-43.552834,-64.017639,181.469193
798,345060456,-39.364040,35.642006,-115.996544,0.273672,3.170931,0.212799,-53.232513,-73.786705,185.932587
799,345077123,-38.074936,36.486725,-112.049309,0.603959,3.141225,-0.041549,-61.805092,-82.868187,181.524506
800,345093790,-36.793373,37.096058,-108.118446,0.915047,3.027918,0.312103,-64.088593,-88.433220,172.647507
801,345110457,-35.533146,37.499619,-104.342949,0.921535,3.131330,0.916089,-61.387684,-89.441681,160.225739
802,345127124,-34.342171,37.704113,-100.851006,0.822321,3.253522,0.968868,-56.117920,-87.656265,143.558319
803,345143791,-33.256969,37.695133,-97.769928,0.689077,3.437817,0.505009,-47.672680,-84.467438,121.702034
804,345160458,-32.256401,37.439888,-95.121002,0.517537,3.550558,0.022471,-36.606003,-83.694916,98.113304
805,345177125,-31.295193,36.915401,-92.936279,0.407114,3.580823,-0.378184,-21.279852,-84.406013,72.672432
806,345193792,-30.421967,36.102650,-91.269073,0.449150,3.525833,-0.717719,-6.863509,-85.760468,44.464005
807,345210459,-29.718782,34.976055,-90.162422,0.481632,3.214692,-1.294752,3.851227,-88.233582,13.344611
808,345227126,-29.190948,33.522453,-89.617561,0.532647,2.851235,-2.046896,13.525955,-91.897186,-18.900517
809,345243793,-28.778343,31.732025,-89.605743,0.541988,2.489066,-2.626878,24.628954,-96.928207,-51.078026
810,345260460,-28.428032,29.588575,-90.103760,0.513494,1.952256,-3.363255,36.509937,-103.274345,-83.677902
811,345277127,-28.081892,27.077082,-91.079628,0.554292,1.231473,-4.182388,48.810780,-111.003014,-116.274078
812,345293794,-27.640690,24.185225,-92.488258,0.635958,0.238898,-5.095670,63.288628,-120.445511,-147.994324
813,345310461,-26.996647,20.853579,-94.308029,0.560640,-1.340690,-5.968536,80.714325,-133.964478,-180.892838
814,345327128,-26.086901,17.148111,-96.444016,-0.169929,-3.350025,-6.810407,96.557747,-147.381882,-207.293396
815,345343795,-24.872141,13.150426,-98.827950,-0.902205,-5.844022,-6.465324,110.501572,-159.754852,-227.359009
816,345360462,-23.272142,8.947556,-101.373947,-1.395926,-7.699945,-5.049213,125.493912,-171.685379,-239.283798
817,345377129,-21.018093,4.764738,-104.069984,-1.381512,-9.974090,-1.733928,154.745773,-174.498505,-242.894211
818,345393796,-17.967243,1.072207,-106.904762,-2.338795,-12.183714,2.031806,191.882156,-154.743637,-233.593460
819,345410463,-14.130417,-1.816183,-109.639450,-3.681928,-11.953616,4.346927,229.318817,-123.756607,-205.120438
820,345427130,-9.905581,-3.924978,-112.148613,-3.275206,-9.811149,3.412702,246.145706,-95.003082,-172.924957
821,345443797,-6.088278,-5.315683,-114.215752,-1.965464,-8.339581,2.561370,219.273636,-67.973801,-133.528320
822,345460464,-3.619536,-6.185966,-115.754166,-0.687900,-7.390890,3.399467,139.123108,-46.783268,-95.407532
823,345477131,-3.150342,-6.847849,-116.657089,0.318367,-5.731287,4.205632,22.256470,-38.977760,-55.551876
824,345493798,-4.594339,-7.506123,-116.879547,0.316676,-4.250495,4.737858,-88.057022,-41.018154,-15.356220
825,345510465,-7.555730,-8.193241,-116.459862,-0.541751,-3.369758,4.625194,-173.994720,-46.140320,20.970642
826,345527132,-11.364015,-8.789688,-115.431374,-1.820602,-3.014455,3.973330,-219.129318,-47.833515,54.861996
827,345543799,-14.991793,-9.115764,-113.938805,-2.891538,-2.525722,3.614693,-203.468475,-41.710823,82.222260
828,345560466,-17.617630,-8.889652,-112.062431,-4.368358,-2.228008,3.444358,-139.664932,-20.686213,111.084610
829,345577133,-18.781607,-8.045419,-110.135094,-4.214813,-2.540082,3.024370,-52.540936,9.908772,125.025688
830,345593800,-19.037640,-6.814528,-108.021988,-2.821872,-3.187718,2.483949,1.307325,26.637774,143.422424
831,345610467,-19.079998,-5.541924,-105.766296,-0.723337,-3.841502,1.662801,12.301514,25.750990,152.666260
832,345627134,-19.419239,-4.200576,-103.621452,0.472460,-4.369394,1.496481,-9.142374,31.230360,148.143570
833,345643801,-20.208115,-2.832997,-101.464027,0.502199,-4.203511,1.251729,-39.104324,30.930471,149.917816
834,345660468,-21.251423,-1.371492,-99.325264,0.222232,-4.365641,0.837069,-57.598938,34.153389,151.535370
835,345677135,-22.282202,0.260354,-97.238182,-0.018443,-4.580860,0.070683,-60.338848,42.030857,153.160995
836,345693802,-23.197222,2.012358,-95.336311,0.493631,-4.441584,-0.551022,-56.870262,50.389980,146.421051
837,345710469,-24.102474,3.846262,-93.719238,0.937422,-4.234869,-0.943281,-58.979797,59.470512,133.472382
838,345727136,-25.106844,5.771945,-92.433685,1.121001,-4.029843,-1.239474,-66.435280,70.603600,118.562485
839,345743803,-26.307472,7.750860,-91.476562,1.156232,-3.705198,-1.345398,-78.505508,79.807770,103.463097
840,345760470,-27.829809,9.720092,-90.879089,1.567121,-3.198958,-1.626537,-96.489807,86.656342,85.900406
841,345777137,-29.707703,11.606571,-90.637245,1.407387,-2.507337,-2.007452,-115.065506,89.927902,67.557533
842,345793804,-31.915344,13.351669,-90.757217,1.074897,-1.898975,-2.443823,-130.613144,91.104515,48.183418
843,345810471,-34.376034,14.949394,-91.181473,0.148066,-1.540807,-2.227591,-141.130722,91.336266,32.338928
844,345827138,-36.991821,16.398529,-91.931488,-0.459558,-1.006698,-1.686636,-144.502396,93.472450,16.117611
845,345843805,-39.607231,17.683571,-93.068787,-0.992054,-0.595786,-1.017439,-136.639816,98.512314,-2.818229
846,345860472,-42.129951,18.811926,-94.619225,-1.427492,-0.056633,-0.597396,-121.946815,106.565712,-21.910038
847,345877139,-44.418400,19.800354,-96.591194,-2.133436,0.443092,-0.212394,-97.899338,117.279579,-40.045250
848,345893806,-46.361198,20.655626,-98.971100,-2.890213,0.983295,0.050518,-66.907715,128.965454,-56.955315
849,345910473,-47.910282,21.376795,-101.715523,-3.018344,1.766672,0.103908,-33.604362,139.634567,-72.238899
850,345927140,-49.070045,21.992937,-104.766235,-3.259050,2.631942,0.307148,-1.666612,149.395905,-84.428986
851,345943807,-49.886360,22.466326,-108.067131,-2.520439,3.805940,0.078999,26.229485,155.332336,-96.913048
852,345960474,-50.486130,22.763367,-111.507530,-1.833515,4.712517,-0.187699,43.667828,155.291321,-107.707527
853,345977141,-51.023884,22.811316,-114.999886,-0.998564,5.455115,-0.498486,49.169113,148.939240,-119.375435
854,345993808,-51.545963,22.598129,-118.437569,-0.239870,5.938945,-0.898335,48.562851,137.960876,-128.375336
855,346010475,-52.033264,22.166668,-121.748024,0.522282,6.103450,-0.954389,46.674004,125.789085,-133.337601
856,346027142,-52.542145,21.574358,-124.878288,1.449778,5.818081,-0.484138,39.707989,113.631912,-134.129440
857,346043809,-53.201435,20.881086,-127.789330,2.353306,5.536794,0.186282,23.964243,102.177452,-130.843811
858,346060476,-54.064274,20.169281,-130.430252,2.894359,5.364742,0.587498,4.069776,91.635887,-121.800797
859,346077143,-55.065151,19.534018,-132.704407,3.017336,5.692130,0.679088,-13.431786,79.928444,-104.897156
860,346093810,-56.072601,19.045027,-134.504745,3.361722,6.113945,0.489063,-24.478863,64.954597,-81.291443
861,346110477,-56.999287,18.748482,-135.723358,3.788003,6.258926,0.678830,-31.636005,45.337471,-52.446056
862,346127144,-57.752480,18.662685,-136.330261,4.035394,5.926317,1.014468,-33.224174,23.705254,-22.401716
863,346143811,-58.301353,18.826416,-136.370789,3.921452,5.293291,1.364082,-31.859053,4.579715,7.629072
864,346160478,-58.640564,19.218985,-135.947067,3.799947,4.632676,1.227722,-28.345682,-10.752760,33.148579
865,346177145,-58.854202,19.805830,-135.144226,3.379414,4.105155,0.992398,-28.610909,-23.134369,54.146469
866,346193812,-59.003143,20.533962,-134.029877,2.674200,3.870662,0.935483,-31.691576,-33.800488,70.289589
867,346210479,-59.059376,21.331799,-132.674988,2.522745,3.674872,0.650373,-32.118557,-43.069668,80.583908
868,346227146,-59.085842,22.115881,-131.120590,2.837175,3.445902,0.187633,-35.808907,-52.747616,85.346695
869,346243813,-59.279377,22.794289,-129.401138,3.168886,3.178858,-0.105311,-50.719532,-63.636265,84.254700
870,346260480,-59.773663,23.299219,-127.543755,3.232583,2.993965,-0.208982,-72.987183,-75.624382,78.557556
871,346277147,-60.514164,23.623320,-125.561295,2.796541,3.079412,0.005299,-91.491112,-87.562538,71.616913
872,346293814,-61.294209,23.771595,-123.476219,1.642611,3.463635,0.537627,-96.790649,-98.385941,63.902897
873,346310481,-61.739891,23.760654,-121.313766,0.572074,3.847951,0.928292,-78.742523,-107.297691,56.468304
874,346327148,-61.633476,23.611483,-119.102669,0.265624,3.814855,1.108119,-46.627934,-113.814072,50.154144
875,346343815,-61.138561,23.341175,-116.890755,0.785497,3.711113,0.834983,-22.895418,-117.241196,44.464100
876,346360482,-60.585300,22.885891,-114.745461,1.750945,3.532355,0.291580,-17.056145,-119.323990,34.185326
877,346377149,-60.348316,22.162687,-112.716522,2.094492,3.240365,-0.216569,-32.140884,-121.849960,18.069683
878,346393816,-60.545750,21.105675,-110.825844,1.303413,3.091459,-0.506480,-53.397987,-125.635483,-2.769235
879,346410483,-60.834911,19.750744,-109.118027,-0.395850,3.052247,-0.026289,-52.847748,-126.152901,-23.500492
880,346427150,-60.653694,18.195562,-107.663048,-1.745893,2.655579,0.496331,-17.247040,-120.256714,-40.681248
881,346443817,-59.752113,16.560514,-106.553909,-1.945402,1.798312,0.594927,34.477737,-106.500916,-53.192390
882,346460484,-58.251514,14.848686,-105.866295,-1.421948,1.362689,0.319001,79.127327,-89.584473,-67.204750
883,346477151,-56.483376,13.018558,-105.598534,-0.988729,0.983812,-0.298155,102.479050,-74.996140,-83.680672
884,346493818,-54.628288,11.023387,-105.753418,-0.858487,0.061213,-0.926545,113.500870,-62.865074,-103.476845
885,346510485,-52.500275,8.832273,-106.348137,-0.796100,0.061624,-2.226029,134.090790,-52.459694,-126.250641
886,346527152,-49.898064,6.432919,-107.348022,-0.746849,-0.399837,-3.332693,164.353027,-46.525112,-149.055618
887,346543819,-46.975628,3.872744,-108.795792,-0.623234,-1.988085,-3.381963,183.392059,-39.833733,-171.931381
888,346560486,-43.918327,1.169753,-110.829460,-0.345808,-3.952209,-2.881135,189.037537,-29.554556,-200.681076
889,346577153,-40.818581,-1.690772,-113.398979,0.103767,-5.772951,-2.507056,185.501877,-25.535801,-229.139603
890,346593820,-37.690521,-4.700754,-116.405655,-0.262896,-7.829663,-1.330544,177.825027,-28.470139,-253.310272
891,346610487,-34.407078,-7.634462,-119.843529,-2.131867,-9.902209,0.582199,175.023605,-24.210083,-268.934418
892,346627154,-30.694891,-10.044072,-123.549599,-4.705628,-11.010126,2.273686,188.727463,-6.204108,-262.525970
893,346643821,-26.777237,-11.601202,-127.055946,-6.334758,-10.171512,2.918153,195.743286,14.864630,-225.620987
894,346660488,-23.538036,-12.449142,-129.881882,-5.476623,-8.373886,2.619879,159.257462,21.891928,-171.221756
895,346677155,-21.942526,-12.849175,-131.601334,-3.812839,-5.817838,2.197536,73.402290,14.228786,-101.585663
896,346693822,-22.017904,-12.941633,-132.014984,-2.404871,-3.398655,1.140502,-9.792272,1.374618,-23.975096
897,346710489,-22.823944,-12.846573,-131.334000,-0.523491,-2.963434,0.832572,-38.973907,-12.448644,39.534328
898,346727156,-23.913792,-12.633930,-129.934235,-0.446150,-3.341215,1.495186,-46.599827,-23.308338,80.801613
899,346743823,-25.088314,-12.283548,-128.214630,-1.343444,-3.142565,1.479151,-47.942730,-25.176319,100.936501
900,346760490,-25.974838,-11.805391,-126.401588,-2.207044,-2.738349,0.615648,-30.224871,-22.486683,108.909828
901,346777157,-26.360468,-11.221745,-124.629059,-2.308891,-3.491815,-0.034687,-1.643100,-17.043200,109.521652
902,346793824,-26.165314,-10.264139,-122.846230,-1.745852,-3.657352,-0.162147,31.913864,2.507550,120.221725
903,346810491,-25.643089,-9.083000,-121.081581,-0.862047,-4.507242,0.374073,49.388760,15.642056,125.401794
904,346827158,-25.585314,-7.930732,-119.097557,-0.004380,-4.917947,0.669319,21.340464,8.942324,136.601273
905,346843825,-26.219122,-7.014952,-117.155434,0.445755,-5.192510,0.867222,-22.605055,-3.541924,128.491486
906,346860492,-27.541689,-6.211425,-115.239883,-0.621016,-5.347458,1.495501,-65.848099,-11.107841,124.190544
907,346877159,-29.126854,-5.335933,-113.238838,-1.624192,-5.378821,1.855880,-82.760605,-12.944834,130.638901
908,346893826,-30.604219,-4.255526,-111.167007,-2.381473,-5.231218,2.265619,-77.975243,-7.953171,140.272903
909,346910493,-31.780130,-2.939668,-109.082359,-2.716677,-4.882052,2.268596,-62.428955,0.406632,148.250046
910,346927160,-32.648224,-1.404766,-107.063660,-2.371281,-4.444450,1.831141,-47.215164,10.920076,152.072342
911,346943827,-33.290123,0.245350,-105.166176,-1.637944,-3.896189,1.325316,-37.080208,18.638227,149.970749
912,346960494,-33.855610,1.972067,-103.427849,-0.937891,-3.282991,1.065794,-35.660862,26.184315,144.761490
913,346977161,-34.429283,3.723391,-101.918961,-0.839618,-2.652617,0.843197,-38.630222,33.753128,134.401520
914,346993828,-35.010254,5.458031,-100.676521,-0.959665,-1.971174,0.588139,-40.535072,40.759521,120.945259
915,347010495,-35.635136,7.128881,-99.719978,-1.163471,-1.347331,0.274261,-43.492264,46.347752,105.100677
916,347027162,-36.294353,8.709843,-99.068489,-0.867711,-0.609784,-0.129462,-44.643387,51.570366,87.638382
917,347043829,-37.018848,10.211442,-98.699608,-0.738096,0.437097,-0.309478,-46.811081,56.776413,71.892815
918,347060496,-37.695660,11.618823,-98.667328,-1.180400,1.350532,-0.548200,-40.679420,63.490189,53.345604
919,347077163,-38.172153,12.939236,-98.977776,-1.837414,2.010161,-1.058403,-24.330708,71.195595,34.936962
920,347093830,-38.253265,14.192835,-99.661873,-2.036025,3.079251,-2.070734,5.058817,81.290390,15.768540
921,347110497,-37.861824,15.408438,-100.731956,-2.210907,4.158914,-2.594543,40.185894,93.200485,-3.331552
922,347127164,-37.131645,16.567701,-102.168846,-2.046850,5.020395,-2.537831,67.854919,103.127983,-22.830341
923,347143831,-36.455498,17.636307,-103.910301,-1.092087,5.490279,-1.861326,71.595490,108.642250,-40.990829
924,347160498,-36.118412,18.516947,-105.915306,0.768938,5.712670,-0.923263,57.854935,107.749916,-60.337723
925,347177165,-36.304493,19.226122,-108.061523,1.904477,5.289345,0.431881,30.791641,103.780769,-72.604057
926,347193832,-37.053246,19.861893,-110.269089,2.291105,5.151103,0.756829,-0.308933,102.609268,-76.756821
927,347210499,-38.297306,20.470112,-112.488800,2.631775,5.589550,-0.159464,-28.421724,102.740051,-76.084549
928,347227166,-39.923553,21.052214,-114.621765,2.624832,6.090946,-1.053108,-51.900791,100.029549,-70.269554
929,347243833,-41.600403,21.593712,-116.581345,2.604754,6.301362,-1.206938,-57.551304,93.552094,-61.198898
930,347260500,-42.992512,22.123619,-118.282387,3.252350,5.690822,-0.559361,-45.222851,84.687431,-48.130993
931,347277167,-44.019367,22.627693,-119.682358,4.748701,4.604825,-0.225989,-29.334467,72.825478,-34.985287
932,347293834,-44.881870,23.042076,-120.750465,5.791631,3.634525,-0.243948,-26.582468,56.524792,-24.230738
933,347310501,-45.675007,23.296383,-121.490089,6.189034,3.200774,-0.348811,-29.836159,37.136902,-17.356026
934,347327168,-46.299862,23.357620,-121.918739,5.711451,2.986245,-0.528912,-27.021261,16.945999,-13.268162
935,347343835,-46.585529,23.283833,-122.050697,4.159819,2.595484,0.038103,-13.723491,-0.374484,-7.730420
936,347360502,-46.303410,23.254725,-121.947701,1.914951,1.886116,1.833357,14.763319,-7.915253,3.128728
937,347377169,-45.353683,23.359043,-121.641640,1.525910,1.556213,2.511869,49.994469,-10.332998,16.719687
938,347393836,-44.015079,23.591949,-121.077866,2.337615,1.321329,1.319991,67.116028,-14.482086,32.364128
939,347410503,-42.899170,23.869650,-120.189407,2.740981,1.365093,0.545149,45.771908,-24.075663,47.359245
940,347427170,-42.484440,24.107555,-119.010117,2.864763,1.573128,0.813437,-3.611719,-35.943695,57.664104
941,347443837,-42.744259,24.366459,-117.575523,1.576811,2.013815,1.934310,-50.654766,-44.312538,68.745537
942,347460504,-42.967484,24.768555,-115.969879,0.084563,2.905097,2.480588,-53.179790,-44.513966,81.102165
943,347477171,-42.564182,25.422449,-114.210678,-0.913927,3.100615,2.377122,-20.306204,-38.711906,97.274109
944,347493838,-41.495975,26.346891,-112.324310,-0.357886,3.444061,1.546787,14.943430,-29.587238,113.230095
945,347510505,-40.123695,27.374243,-110.333115,1.329030,3.809671,0.737542,28.614391,-25.621344,121.416542
946,347527172,-38.978966,28.302080,-108.266029,2.629278,4.267251,0.454721,11.026914,-29.533089,120.467842
947,347543839,-38.311451,29.004368,-106.204193,2.766940,4.464038,0.524714,-19.008905,-37.510906,111.554657
948,347560506,-37.889412,29.511261,-104.250015,1.050699,4.222132,0.908717,-31.725317,-41.812702,99.711998
949,347577173,-37.263458,29.913349,-102.482903,-0.724061,3.706486,1.098750,-14.739005,-39.666573,88.140068
950,347593840,-36.217693,30.221088,-100.937576,-1.084475,3.675699,0.738724,16.545427,-35.842129,75.798523
951,347610507,-34.917923,30.325129,-99.638977,-0.358533,3.999493,-0.185850,38.961723,-36.702740,58.817177
952,347627174,-33.622383,30.143412,-98.613823,0.319864,3.960106,-0.870981,47.013809,-41.579399,38.227726
953,347643841,-32.465038,29.637175,-97.919891,0.658968,3.557443,-0.941603,48.946327,-47.796059,14.149881
954,347660508,-31.513861,28.787886,-97.612854,0.905204,3.211347,-1.020288,48.335274,-54.394161,-12.901647
955,347677175,-30.822941,27.572105,-97.709282,0.936883,2.839589,-1.528511,44.442799,-62.436363,-41.667915
956,347693842,-30.367393,25.973576,-98.279686,1.087893,2.613171,-2.333309,43.003777,-69.669777,-74.665619
957,347710509,-30.158066,23.938086,-99.352325,1.445589,2.682235,-3.427271,39.970016,-78.742638,-111.491943
958,347727176,-30.154312,21.356892,-100.884789,1.540182,2.004395,-4.642156,35.890083,-93.941795,-150.717239
959,347743843,-30.246954,18.070272,-102.878258,1.551535,0.618688,-5.280669,35.056599,-116.439018,-196.058945
960,347760510,-30.242128,14.245042,-105.316353,0.463910,-1.897356,-5.321373,41.268459,-130.130997,-236.533142
961,347777177,-29.577694,10.040758,-108.227020,-0.402103,-4.824032,-5.100370,76.850639,-136.129456,-273.326965
962,347793844,-27.980396,5.722108,-111.485512,-1.336445,-8.368129,-3.715466,122.851746,-136.463272,-294.042419
963,347810511,-25.546112,1.552010,-114.971771,-3.197819,-11.990833,-1.334957,159.489990,-131.971954,-298.613983
964,347827178,-22.501402,-2.071337,-118.474342,-7.135826,-14.637297,2.381168,181.881989,-115.579208,-280.000946
965,347843845,-19.340578,-4.656764,-121.776085,-9.865644,-14.149907,5.680103,178.209366,-76.846352,-239.639755
966,347860512,-16.710529,-6.253546,-124.494202,-6.014405,-10.128667,5.322386,142.533554,-43.427464,-183.512466
967,347877179,-15.754664,-7.291820,-126.134987,-3.612901,-6.209844,3.814572,46.008423,-35.034157,-110.752655
968,347893846,-16.590151,-7.998596,-126.629028,-3.155192,-3.086609,2.571470,-53.799435,-35.086769,-39.499825
969,347910513,-18.457558,-8.470055,-126.140251,-2.921600,-2.130112,1.622438,-107.567291,-38.248692,19.695477
970,347927180,-20.456440,-8.672817,-124.954475,-2.431579,-2.401935,1.876850,-109.045357,-37.434940,62.821552
971,347943847,-21.865644,-8.521359,-123.368546,-2.145892,-2.298623,2.281889,-70.043304,-28.012857,91.564888
972,347960514,-22.236940,-7.992584,-121.640587,-1.831246,-2.289770,2.021063,-7.107140,-11.635267,107.546669
973,347977181,-21.583452,-7.196312,-119.856857,-0.789284,-2.612538,1.183533,53.632133,2.221115,116.797905
974,347993848,-20.337477,-6.019729,-117.902634,-1.045059,-3.614212,0.789457,88.522957,21.739885,134.571335
975,348010515,-18.766735,-4.645899,-115.775146,-0.409132,-3.951743,0.730973,106.373520,32.629490,147.906250
976,348027182,-17.309010,-3.141712,-113.652657,0.136231,-5.359209,1.124816,96.375542,43.965271,149.307739
977,348043849,-16.349558,-1.779691,-111.353752,0.933171,-5.668878,1.285323,63.755424,35.823795,156.112671
978,348060516,-15.914438,-0.490949,-109.093193,0.835583,-5.765544,1.692230,29.062042,34.113171,152.293549
979,348077183,-15.939244,0.733666,-106.929657,0.953128,-5.622957,1.650817,-1.493107,32.555054,145.537628
980,348093850,-16.305073,2.062385,-104.782478,0.626789,-5.520949,1.284162,-24.821867,38.353802,146.412109
981,348110517,-16.837873,3.504583,-102.669632,0.491285,-5.080819,0.850226,-37.852608,44.365505,146.585266
982,348127184,-17.526482,4.959167,-100.717888,0.594445,-4.570917,0.747362,-49.685135,46.430691,137.904495
983,348143851,-18.427616,6.400344,-98.992714,0.529329,-4.069355,0.671195,-64.038422,48.018806,125.216316
984,348160518,-19.471592,7.873899,-97.481079,0.224851,-3.344616,0.785871,-73.630974,51.965839,114.381706
985,348177185,-20.562716,9.386463,-96.206841,0.014221,-2.822363,0.974257,-76.663368,56.973431,102.646782
986,348193852,-21.718100,10.885673,-95.192078,-0.105718,-2.535394,0.807068,-79.759796,59.863541,88.904732
987,348210519,-22.953165,12.375434,-94.406616,-0.081513,-2.062276,0.139657,-83.324455,62.724689,77.230408
988,348227186,-24.202253,13.819198,-93.815979,-0.185033,-1.093648,0.005980,-82.695053,63.177681,66.854134
989,348243853,-25.534878,15.202270,-93.383537,-0.938169,-0.562911,0.291381,-86.176353,62.315525,58.264931
990,348260520,-26.946712,16.517994,-93.189232,-1.064674,-0.318411,0.332442,-87.610939,63.437588,45.539757
991,348277187,-28.347982,17.827843,-93.227341,-1.391522,0.092457,0.188649,-83.112595,68.217850,35.114716
992,348293854,-29.588175,19.157093,-93.491989,-1.128942,1.075117,-0.164802,-69.084946,74.653061,26.042765
993,348310521,-30.654078,20.500193,-93.958130,-1.438097,1.849516,-0.426462,-54.176319,80.483597,18.275118
994,348327188,-31.733465,21.824968,-94.657997,-1.643743,1.989961,-0.817231,-49.308811,85.847206,8.264385
995,348343855,-32.670616,23.145889,-95.642822,-2.140795,2.347214,-1.188784,-33.335236,93.719475,-3.365805
996,348360522,-33.340420,24.544159,-96.924240,-2.190443,2.706149,-1.370906,-8.810024,106.212944,-12.674024
997,348377189,-33.756153,26.081678,-98.526016,-1.755912,3.065904,-1.559627,16.444883,122.438217,-20.826939
998,348393856,-34.060104,27.759432,-100.534142,-0.835953,3.492397,-1.732784,36.612740,141.007645,-32.407013
999,348410523,-34.456741,29.563032,-102.976112,-0.425605,3.650968,-2.010103,46.777473,159.330490,-44.749996
1000,348427190,-35.120041,31.430645,-105.847099,0.349886,4.078553,-2.844072,47.927216,174.216080,-57.383377
1001,348443857,-36.147552,33.246281,-109.045631,1.376039,4.586888,-3.495933,41.314110,180.495529,-67.740250
1002,348460524,-37.663986,34.865196,-112.396645,2.439637,5.305549,-3.924542,21.919306,175.179962,-74.297554
1003,348477191,-39.491238,36.219372,-115.732254,2.791251,5.911704,-3.088124,7.011422,162.536514,-76.073959
1004,348493858,-41.386036,37.202271,-118.906685,3.007933,6.116571,-1.188113,0.469005,141.389679,-77.397202
1005,348510525,-43.121986,37.839352,-121.739586,3.018473,5.766771,0.163254,-0.343540,116.400688,-73.521446
1006,348527192,-44.560085,38.240330,-124.110847,3.517947,5.285437,1.013465,1.670784,92.419235,-63.604401
1007,348543859,-45.655758,38.472767,-125.895073,4.009413,5.115374,1.593109,0.972211,66.757645,-48.829643
1008,348560526,-46.393379,38.537205,-127.028458,4.063359,4.990732,1.749830,-1.642186,38.414707,-33.640259
1009,348577193,-46.806793,38.480759,-127.531548,3.211034,4.642435,2.144170,-5.729956,12.258906,-18.177380
1010,348593860,-46.816700,38.358788,-127.489250,2.086124,4.294013,2.397668,-1.891742,-9.044191,-3.473557
1011,348610527,-46.379375,38.254200,-126.995346,1.311020,3.728719,2.238680,8.154702,-23.799168,11.913030
1012,348627194,-45.602894,38.211437,-126.135986,1.197088,3.142981,1.730692,14.964191,-33.515030,26.785690
1013,348643861,-44.732418,38.228508,-125.000687,1.539474,2.569673,1.097424,10.370015,-39.839649,38.942226
1014,348660528,-43.975246,38.310463,-123.627220,1.015958,2.316369,0.796176,-5.324235,-44.329491,50.178135
1015,348677195,-43.309917,38.410404,-122.015701,0.254132,2.371945,0.668798,-19.802692,-50.607216,59.478497
1016,348693862,-42.548664,38.520405,-120.186302,-0.223591,2.535914,0.451468,-22.317661,-56.325508,67.893425
1017,348710529,-41.651245,38.652428,-118.177422,-0.226601,2.506541,0.358001,-21.046242,-59.917336,75.684578
1018,348727196,-40.710262,38.772343,-116.036308,0.587279,2.492290,0.289791,-23.602562,-63.224998,80.652512
1019,348743863,-39.918369,38.823967,-113.806717,1.597785,2.469637,0.142435,-36.024899,-67.734650,81.967117
1020,348760530,-39.556404,38.752583,-111.534889,2.245626,2.855308,-0.052864,-63.391300,-73.863594,79.425613
1021,348777197,-39.741676,38.495361,-109.279556,2.333100,3.605193,-0.129923,-95.302284,-81.990715,72.002914
1022,348793864,-40.306168,38.028664,-107.083038,1.235844,4.249704,-0.221901,-115.206276,-90.648750,61.676876
1023,348810531,-40.915257,37.364109,-104.951103,-0.293128,4.298688,-0.280741,-114.489647,-98.812134,51.313889
1024,348827198,-41.249573,36.569168,-102.899887,-1.127184,3.769483,0.251717,-93.798935,-103.241005,43.203781
1025,348843865,-41.144318,35.711803,-100.998932,-1.250961,3.057655,0.920988,-60.686131,-102.053833,35.850216
1026,348860532,-40.678783,34.824604,-99.305038,-0.771222,2.788283,0.972056,-30.489820,-97.256546,28.269478
1027,348877199,-40.045685,33.885048,-97.845642,-0.280884,2.772525,0.666573,-11.165111,-92.464363,18.992313
1028,348893866,-39.438095,32.809231,-96.646599,0.217556,3.159517,-0.081115,-2.833244,-90.758446,5.361592
1029,348910533,-38.941914,31.526129,-95.723000,0.504208,3.373652,-0.872824,0.524494,-92.022064,-11.875432
1030,348927200,-38.587830,30.013948,-95.102737,0.532868,3.250064,-1.259030,2.462508,-93.485512,-31.465780
1031,348943867,-38.461113,28.265236,-94.858223,0.601982,3.407241,-1.277711,0.715014,-92.792282,-54.920467
1032,348960534,-38.660278,26.229935,-95.054848,0.619305,3.546445,-1.863900,-6.288542,-91.682030,-83.923706
1033,348977201,-39.050030,23.818470,-95.638268,0.224939,3.470787,-3.145465,-8.314924,-95.508789,-115.073074
1034,348993868,-39.283703,21.001266,-96.556374,-0.350726,2.473011,-4.183322,7.247928,-101.625992,-145.845474
1035,349010535,-38.944645,17.802616,-97.809814,-0.893985,1.140973,-4.195482,45.592991,-106.895416,-175.715256
1036,349027202,-37.805923,14.279166,-99.501602,-0.649365,-1.220911,-3.478385,96.629272,-107.904198,-207.323837
1037,349043869,-36.018539,10.611833,-101.700935,-0.081958,-4.055948,-2.390743,135.925491,-101.258965,-234.781281
1038,349060536,-33.733532,6.910153,-104.424042,0.169255,-6.460901,-1.643167,162.211182,-92.563629,-259.062866
1039,349077203,-30.880850,3.218642,-107.641586,0.010953,-8.616977,-1.455607,188.398346,-87.083412,-280.486755
1040,349093870,-27.451279,-0.266519,-111.272415,-0.747631,-11.594596,0.266121,211.550720,-79.087471,-291.645081
1041,349110537,-23.899059,-3.177725,-115.030006,-2.409779,-14.098376,3.354689,206.524063,-62.385994,-278.333435
1042,349127204,-20.879667,-5.284113,-118.487785,-3.703786,-13.809729,4.798079,166.062073,-40.630394,-238.961609
1043,349143871,-19.086775,-6.686234,-121.208099,-3.249863,-10.588924,3.922952,90.800720,-26.154301,-180.792084
1044,349160538,-18.852343,-7.537953,-122.809944,-2.529303,-6.618996,3.470191,2.429279,-19.876926,-106.281517
1045,349177205,-19.718266,-7.885486,-123.100662,-2.128739,-3.027932,2.968859,-54.036076,-16.510290,-22.674694
1046,349193872,-20.898544,-7.876814,-122.239571,-0.555490,-2.163960,1.896643,-63.468399,-19.804750,48.711479
1047,349210539,-22.308249,-7.640758,-120.613876,0.099867,-3.083993,2.056103,-71.147522,-24.941885,95.608727
1048,349227206,-23.988928,-7.161412,-118.700768,-0.410170,-3.713830,1.620827,-85.788002,-20.826164,116.507591
1049,349243873,-25.564896,-6.506459,-116.790268,-0.553590,-3.504619,0.690721,-80.653183,-14.536612,120.349106
1050,349260540,-26.711977,-5.793852,-114.983597,-0.094688,-3.011097,0.359379,-56.951092,-11.607071,116.133118
1051,349277207,-27.363615,-4.848566,-113.219627,-0.273483,-3.237676,0.753203,-29.027153,0.105267,120.191124
1052,349293874,-27.398338,-3.629012,-111.556694,0.249944,-3.320872,0.716023,5.542062,16.709585,122.553047
1053,349310541,-27.240240,-2.278313,-109.971428,0.780482,-4.125986,0.921597,14.634637,25.908848,122.135071
1054,349327208,-27.318583,-1.144405,-108.203712,1.381008,-4.362340,0.729478,-1.286906,9.387025,125.950737
1055,349343875,-27.741823,-0.078601,-106.474548,0.758619,-5.594675,0.651640,-24.042393,6.269736,122.100861
1056,349360542,-28.340538,0.985619,-104.757538,0.434163,-6.031405,0.700270,-36.495918,5.454092,121.490158
1057,349377209,-29.031521,2.225128,-103.052299,-0.245017,-6.318701,1.099126,-44.082214,13.686240,125.970673
1058,349393876,-29.746687,3.612765,-101.318878,-0.897989,-6.151299,1.199946,-47.962891,19.115744,131.916626
1059,349410543,-30.515148,5.066798,-99.659363,-0.971623,-5.881320,1.022205,-53.394207,23.170940,130.224915
1060,349427210,-31.397444,6.566113,-98.147209,-0.751432,-5.310067,0.383868,-61.880039,28.278950,124.248344
1061,349443877,-32.330147,8.105209,-96.833328,-0.858718,-4.315357,-0.017714,-65.770760,34.726406,115.726448
1062,349460544,-33.326752,9.656894,-95.726974,-1.219672,-3.526149,0.022696,-69.782837,40.251369,106.164871
1063,349477211,-34.391026,11.183130,-94.899719,-1.103333,-2.651617,-0.006750,-72.568726,46.422668,92.144402
1064,349493878,-35.456715,12.672988,-94.337181,-1.202698,-1.730166,0.021229,-70.648865,51.962067,78.846558
1065,349510545,-36.427402,14.107780,-94.043221,-1.622161,-0.858770,0.159231,-62.053135,57.202709,65.012283
1066,349527212,-37.182510,15.486669,-94.049210,-2.112046,-0.367014,0.031116,-44.940701,64.017502,49.884235
1067,349543879,-37.726818,16.873323,-94.379257,-2.528018,-0.102692,-0.029116,-26.861237,75.172577,36.093987
1068,349560546,-38.209385,18.273775,-95.040321,-2.624980,0.382223,0.103093,-16.694145,87.060974,22.480347
1069,349577213,-38.683411,19.652002,-96.025032,-2.034451,1.318751,-0.182208,-8.954924,97.053658,8.250878
1070,349593880,-39.019253,21.036255,-97.266434,-2.456002,1.976183,-0.197558,6.032831,106.028381,-1.693169
1071,349610547,-39.119572,22.534105,-98.813881,-2.991933,1.991762,0.435779,28.728458,121.639717,-9.700976
1072,349627214,-38.904205,24.258591,-100.764160,-3.515356,1.692176,1.564115,59.676258,145.516281,-17.727974
1073,349643881,-38.231571,26.348330,-103.159164,-4.660065,1.553497,2.015391,102.061951,176.535660,-22.824459
1074,349660548,-36.966766,28.896418,-105.977623,-5.026753,2.719769,0.965454,154.567703,210.052017,-24.861210
1075,349677215,-35.287601,31.809803,-109.116829,-2.692806,4.593410,-0.647342,196.196304,234.519028,-27.660837
1076,349693882,-33.909630,34.803795,-112.453804,1.017094,5.823051,-1.691502,192.895142,240.369415,-35.180054
1077,349710549,-33.409576,37.654034,-115.814919,3.561621,6.141464,-1.393234,149.483170,229.966736,-40.063107
1078,349727216,-33.867512,40.216118,-119.052887,5.381167,5.969373,-0.734776,94.921661,209.139938,-40.107388
1079,349743883,-34.996578,42.371922,-122.063408,5.728532,7.320328,-1.050629,51.766224,180.857986,-38.250156
1080,349760550,-36.303108,44.117195,-124.621048,5.311040,9.295397,-1.741453,27.042912,147.676544,-29.260689
1081,349777217,-37.106220,45.429413,-126.477165,6.155678,9.970321,-1.749483,30.537304,107.801285,-15.786869
1082,349793884,-37.364227,46.266273,-127.475441,7.100195,8.689384,-1.090762,27.779459,62.634262,-2.304182
1083,349810551,-37.461613,46.624771,-127.681717,7.036556,6.837832,-0.329977,3.413903,19.666838,6.809013
1084,349827218,-37.628918,46.592476,-127.283379,5.869595,5.710705,0.062173,-27.117756,-14.154784,12.338907
1085,349843885,-37.886223,46.308258,-126.470940,4.257379,5.225000,-0.015041,-50.480579,-36.668705,16.598764
1086,349860552,-38.119316,45.922737,-125.372375,2.275435,4.937871,-0.089900,-61.205956,-48.989273,22.241764
1087,349877219,-38.194164,45.581322,-124.094826,0.896962,4.903327,0.075304,-59.111366,-51.786354,29.874880
1088,349893886,-37.980656,45.316647,-122.671265,0.672606,4.883103,0.044564,-47.769623,-52.104897,37.837341
1089,349910553,-37.622627,45.105030,-121.122421,1.075499,4.528100,-0.143427,-44.183247,-52.807426,44.416668
1090,349927220,-37.430180,44.807926,-119.477142,1.820579,4.172929,-0.274132,-57.914841,-59.341122,45.009834
1091,349943887,-37.651943,44.301868,-117.680717,2.369383,4.065900,-0.395917,-88.640022,-73.531662,42.864677
1092,349960554,-38.200573,43.607121,-115.732559,1.773589,4.173806,-0.304001,-113.764221,-87.262711,41.214119
1093,349977221,-38.813118,42.753880,-113.668816,1.045482,4.542306,-0.005521,-121.202530,-98.941513,39.235394
1094,349993888,-39.232948,41.764801,-111.528320,0.498974,4.569089,0.289344,-111.275482,-108.613846,36.927601
1095,350010555,-39.396374,40.669666,-109.375572,0.030103,4.610234,0.527958,-94.636719,-115.060860,33.983227
1096,350027222,-39.409420,39.426044,-107.210632,-0.218437,4.633111,0.678802,-84.087524,-123.445015,29.913054
1097,350043889,-39.328915,38.005272,-105.053452,-0.356434,4.172419,1.059096,-75.852707,-132.632202,24.439119
1098,350060556,-39.054646,36.435635,-102.965981,-0.341833,3.660940,1.715567,-59.040878,-138.694046,18.229931
1099,350077223,-38.553379,34.761684,-101.059631,-0.194546,3.260657,1.844658,-36.244400,-139.229706,9.975295
1100,350093890,-37.924469,32.973892,-99.436958,-0.034750,3.282797,1.248376,-16.266014,-136.970230,-2.460201
1101,350110557,-37.220272,30.999552,-98.177795,0.047527,3.160467,0.377930,2.486986,-135.650223,-21.009140
1102,350127224,-36.384335,28.840734,-97.382439,-0.117942,2.363641,-0.363762,26.605125,-131.187393,-44.043106
1103,350143891,-35.339828,26.566715,-97.102058,-0.249498,1.304351,-0.773156,55.100548,-122.000732,-67.426689
1104,350160558,-34.054882,24.211121,-97.350960,-0.229966,0.403851,-0.780398,83.748589,-111.226280,-91.110260
1105,350177225,-32.584000,21.770397,-98.152077,0.022911,-0.381786,-0.692428,107.275116,-100.768188,-116.977493
1106,350193892,-31.080997,19.227676,-99.498184,0.238448,-1.281316,-1.084424,118.712723,-92.411514,-144.297913
1107,350210559,-29.487103,16.531633,-101.363693,0.311239,-1.661164,-2.557041,130.245178,-88.654564,-173.112427
1108,350227226,-27.739449,13.658642,-103.658264,0.503099,-2.818625,-3.602899,140.956070,-90.343422,-198.790573
1109,350243893,-26.043928,10.677098,-106.358459,0.237113,-5.114812,-3.438364,136.120270,-90.572754,-221.697220
1110,350260560,-24.494606,7.598384,-109.485428,-0.030829,-7.191185,-2.517138,122.994713,-90.605606,-245.895645
1111,350277227,-22.999371,4.506535,-112.991020,-0.979958,-9.196412,-0.879936,112.127205,-88.178596,-265.681061
1112,350293894,-21.236073,1.616305,-116.777588,-2.880499,-10.790017,1.295757,118.152916,-77.815704,-274.980957
1113,350310561,-18.893017,-0.733121,-120.566772,-5.354276,-11.170300,3.353785,142.544113,-56.986698,-261.415222
1114,350327228,-16.079370,-2.292897,-124.027138,-6.646420,-10.297239,3.960296,163.553741,-29.469015,-225.585602
1115,350343895,-13.585440,-3.014911,-126.719749,-6.144652,-8.689878,2.548125,142.404114,-3.131414,-166.583237
1116,350360562,-12.226126,-3.170352,-128.189301,-5.109296,-5.665718,1.744260,77.076271,8.022316,-87.376099
1117,350377229,-11.950118,-3.076121,-128.296631,-3.712003,-2.979090,1.571435,16.489136,4.338700,-4.575855
1118,350393896,-12.171730,-2.872257,-127.234093,-1.887436,-2.905892,1.709743,-9.704762,-3.869037,65.356117
1119,350410563,-12.605086,-2.585490,-125.366905,-1.653166,-3.780417,2.361926,-20.382193,-9.723862,113.523422
1120,350427230,-13.147659,-2.159525,-123.031670,-2.581759,-4.270150,2.168260,-26.466726,-8.799462,142.706711
1121,350443897,-13.452727,-1.553575,-120.418739,-3.098302,-4.827393,1.022004,-12.937839,-3.176614,161.394089
