sep=,
DeviceTag:,DOT5
FirmwareVersion:,3.0.0
AppVersion:,2023.6.0
SyncStatus:,Synced
OutputRate:,60Hz
FilterProfile:,Dynamic
Measurement Mode:,Custom modes - custom mode1
StartTime: ,2026-06-01_12:46:10_363 GMT+2
© Movella Technologies B. V. 2005-2026

PacketCounter,SampleTimeFine,Euler_X,Euler_Y,Euler_Z,FreeAcc_X,FreeAcc_Y,FreeAcc_Z,Gyr_X,Gyr_Y,Gyr_Z
1,572182434,-48.015602,-9.554598,78.184135,-0.014052,0.335313,0.186784,2.565157,-3.663667,1.320111
2,572199101,-47.990215,-9.541121,78.191666,-0.007045,0.269403,0.126006,1.856645,-2.301019,1.125518
3,572215768,-47.991928,-9.528504,78.204689,-0.062445,0.137731,0.023015,0.285511,-2.572066,1.299992
4,572232435,-48.028194,-9.530169,78.234253,-0.021545,0.152387,0.071047,-1.625459,-3.867479,1.316614
5,572249102,-48.066875,-9.540644,78.269470,0.031827,0.206033,0.164009,-1.712516,-4.475755,1.148992
6,572265769,-48.079319,-9.545108,78.291618,0.034099,0.230483,0.138144,-0.268152,-3.655764,0.901176
7,572282436,-48.068226,-9.540330,78.296982,0.040036,0.183106,0.124339,0.978143,-2.550256,0.653169
8,572299103,-48.048862,-9.549401,78.294853,-0.001817,0.113619,0.112371,1.398460,-2.773023,-0.264438
9,572315770,-48.021488,-9.563533,78.293640,-0.045221,0.131484,0.094681,1.888738,-3.022081,-0.448542
10,572332437,-47.995140,-9.580626,78.294479,0.002847,0.173881,0.193525,1.846400,-3.226816,-0.503315
11,572349104,-47.963161,-9.594310,78.290405,0.021172,0.261218,0.250285,2.135645,-2.875781,-0.543143
12,572365771,-47.919529,-9.591111,78.282333,0.028683,0.292124,0.290722,2.794569,-2.024684,0.047941
13,572382438,-47.876499,-9.577164,78.277496,0.010868,0.275461,0.240145,2.789652,-1.724964,0.650543
14,572399105,-47.851627,-9.559786,78.277054,-0.034754,0.220052,0.140304,1.744334,-1.780236,0.979398
15,572415772,-47.838295,-9.543324,78.281418,-0.063645,0.202745,0.103073,1.100405,-2.035070,1.134969
16,572432439,-47.817822,-9.527252,78.272896,-0.006093,0.263819,0.106350,1.399702,-1.482988,0.602993
17,572449106,-47.770630,-9.500937,78.235710,0.058770,0.279752,0.038218,2.718628,0.183022,-0.078759
18,572465773,-47.700218,-9.463380,78.173607,0.113677,0.288006,-0.033855,3.867831,1.729517,-0.575902
19,572482440,-47.629230,-9.426460,78.097298,0.121317,0.218386,-0.096585,3.762333,2.333183,-1.181143
20,572499107,-47.561966,-9.402256,78.015656,0.200381,0.139448,-0.142795,3.490083,2.048984,-1.959986
21,572515774,-47.412792,-9.396999,77.915627,0.444960,0.185141,0.028549,8.224873,2.079195,-3.540828
22,572532441,-46.972313,-9.369668,77.664108,1.031844,0.546015,0.441690,24.225420,9.537829,-8.684329
23,572549108,-46.068024,-9.204280,77.099762,1.403626,0.781318,0.659883,49.049950,28.577560,-15.567487
24,572565775,-44.860657,-8.921352,76.367485,0.512478,0.360828,0.274444,65.781113,40.344189,-18.107695
25,572582442,-43.688782,-8.645838,75.704399,-0.347419,0.000449,-0.321190,64.495941,36.796299,-16.391640
26,572599109,-42.813984,-8.476161,75.240623,-0.532120,-0.084765,-0.587813,48.604874,23.780466,-12.845178
27,572615776,-42.214878,-8.414743,74.947815,-0.150324,0.082954,-0.436154,33.624214,11.967417,-10.094140
28,572632443,-41.669586,-8.369628,74.680801,0.478168,0.421584,0.114811,30.635321,10.118920,-9.765406
29,572649110,-40.937683,-8.238027,74.303993,0.727392,0.512790,0.451232,40.906132,18.207161,-11.370868
30,572665777,-40.065533,-8.031390,73.861137,0.259560,0.211568,0.357646,48.827705,24.025185,-11.731218
31,572682444,-39.258213,-7.849515,73.459686,-0.254077,-0.117191,0.068222,45.370018,21.141539,-11.183529
32,572699111,-38.682072,-7.760364,73.185699,-0.374030,-0.272027,-0.199622,32.593784,11.909465,-9.080626
33,572715778,-38.249214,-7.733869,72.997154,0.261184,-0.164457,0.001373,24.703732,5.733154,-7.577176
34,572732445,-37.764980,-7.681562,72.792274,0.691304,-0.011056,0.562618,27.661829,7.483599,-7.448234
35,572749112,-37.186543,-7.577922,72.553955,0.484952,-0.200522,0.762816,33.067093,11.063384,-7.242317
36,572765779,-36.616371,-7.460032,72.345573,0.145918,-0.678859,0.695937,32.833794,10.609703,-5.453223
37,572782446,-36.153732,-7.375477,72.229378,0.090639,-1.176040,0.582276,27.119074,5.694468,-2.347628
38,572799113,-35.773941,-7.318501,72.216530,0.345513,-1.385946,0.669693,22.949335,0.725654,1.595693
39,572815780,-35.380703,-7.242572,72.259033,0.507151,-1.414271,0.949186,24.181070,-0.267461,4.919614
40,572832447,-34.932777,-7.123307,72.337425,0.494890,-1.454960,1.255689,27.729324,0.659330,8.143638
41,572849114,-34.426399,-6.955201,72.435936,0.476375,-1.619738,1.310145,31.374891,2.448718,10.768023
42,572865781,-33.864445,-6.742687,72.566338,0.604131,-1.961523,1.249097,34.921417,3.679020,13.790183
43,572882448,-33.263153,-6.505198,72.746368,0.729288,-2.238135,1.190493,37.597267,3.417619,17.020054
44,572899115,-32.633492,-6.249686,73.002525,0.716489,-2.305564,1.202818,39.765816,2.033643,21.350573
45,572915782,-31.974070,-5.967429,73.355232,0.725186,-2.243665,1.275307,42.097179,0.532141,27.030811
46,572932449,-31.298382,-5.642208,73.804535,0.700588,-2.388689,1.118418,43.552017,0.004514,33.265579
47,572949116,-30.590317,-5.282462,74.320328,0.910555,-2.719447,0.691410,45.717609,0.119145,37.715549
48,572965783,-29.838432,-4.919564,74.904778,0.838170,-3.064801,0.240690,48.523327,-1.323491,41.335632
49,572982450,-29.053911,-4.602820,75.582222,0.791839,-3.082015,0.356761,50.741665,-5.934546,44.807800
50,572999117,-28.239735,-4.344968,76.357727,1.119014,-2.784264,0.683342,52.778397,-11.246169,48.318195
51,573015784,-27.382219,-4.127235,77.213715,1.261155,-2.607985,0.889863,55.547676,-14.933606,51.586536
52,573032451,-26.511555,-3.957077,78.134277,1.199837,-2.748847,0.638984,56.438728,-18.468313,53.925934
53,573049118,-25.667210,-3.885890,79.089859,1.259502,-3.085844,0.185691,54.892097,-23.928425,53.435135
54,573065785,-24.888998,-3.991639,80.074913,1.226618,-3.633715,-0.015726,51.065956,-33.537277,50.799934
55,573082452,-24.192343,-4.338614,81.095993,1.310694,-3.891172,0.202477,46.565540,-46.950989,47.123257
56,573099119,-23.405573,-4.834168,82.148750,2.138837,-3.265458,0.592496,52.575523,-55.260750,45.790680
57,573115786,-22.385286,-5.312257,83.185036,2.904193,-2.598787,0.518511,67.038132,-53.178059,46.072811
58,573132453,-21.151819,-5.757722,84.161850,2.906498,-2.242329,0.271534,79.989113,-49.124401,44.440548
59,573149120,-19.835583,-6.234803,85.063347,2.677809,-1.864967,-0.137543,84.958862,-48.321529,40.543137
60,573165787,-18.533318,-6.802978,85.919785,2.675163,-1.176697,-0.003290,84.309380,-51.656395,37.190342
61,573182454,-17.269697,-7.436495,86.728615,2.417820,-0.815912,-0.028515,82.178680,-53.663189,34.322590
62,573199121,-15.944798,-8.099185,87.512962,2.266329,-0.363922,0.159506,86.203690,-54.121902,33.490593
63,573215788,-14.553026,-8.771131,88.222107,1.992887,0.183137,0.217575,90.100777,-52.663219,30.181538
64,573232455,-13.120803,-9.401003,88.797829,1.782029,0.605958,-0.160591,91.745926,-47.548508,24.247013
65,573249122,-11.636768,-9.987445,89.272209,1.402099,0.612208,-0.592772,94.194817,-43.079048,20.023687
66,573265789,-10.197240,-10.593478,89.678955,1.139749,0.865301,-0.931337,91.092918,-42.946644,16.854000
67,573282456,-8.851282,-11.271178,89.990059,0.777708,0.652920,-1.099435,84.660942,-45.829052,11.510927
68,573299123,-7.533834,-12.052529,90.155731,1.018839,0.880565,-1.215218,81.419281,-50.482510,3.113689
69,573315790,-6.160315,-12.930523,90.137794,0.870683,1.327833,-1.034959,82.543282,-54.870461,-7.165953
70,573332457,-4.665880,-13.817955,89.907036,0.502880,1.966647,-1.173477,86.827675,-54.425613,-18.280085
71,573349124,-3.007963,-14.649366,89.461029,0.068025,2.403112,-1.298934,93.263283,-50.720058,-29.054611
72,573365791,-1.190708,-15.402087,88.783600,-0.287141,2.645030,-1.504891,98.861168,-46.369099,-40.733089
73,573382458,0.758773,-16.048109,87.883469,-0.514842,2.862693,-1.759499,102.693802,-41.230740,-51.983105
74,573399125,2.749685,-16.610853,86.809418,-1.067932,2.959039,-1.971031,101.696136,-38.298580,-60.631630
75,573415792,4.651592,-17.119148,85.630211,-1.598336,3.053171,-2.192873,93.944847,-37.451248,-65.458031
76,573432459,6.428263,-17.641825,84.405769,-1.355326,3.173553,-2.629054,85.009865,-40.617508,-66.598602
77,573449126,8.196550,-18.181540,83.166695,-0.774536,3.123688,-2.647953,83.575592,-43.750172,-65.906883
78,573465793,10.076265,-18.677032,81.908287,-0.860076,3.659710,-2.127066,89.257523,-43.343147,-65.861801
79,573482460,12.070822,-19.075531,80.667503,-1.841287,4.111434,-1.013606,95.921471,-39.602924,-64.414398
80,573499127,14.165183,-19.362917,79.441635,-2.567552,4.267131,-0.584023,101.778366,-35.152328,-63.601799
81,573515794,16.325232,-19.517408,78.170174,-3.716881,3.996135,-0.146948,104.531288,-30.445415,-66.848129
82,573532461,18.505165,-19.581329,76.812508,-3.741718,3.673824,0.466249,103.840652,-29.211220,-71.983238
83,573549128,20.541723,-19.610262,75.316170,-3.012362,4.097825,1.983989,92.376442,-32.467789,-79.015594
84,573565795,22.283676,-19.601038,73.745102,-2.603455,4.069240,3.270686,73.166939,-34.460224,-82.755295
85,573582462,23.569323,-19.617086,72.336395,-2.016256,4.171575,3.706294,49.045544,-34.448189,-72.835106
86,573599129,24.315294,-19.708832,71.359001,-2.405017,3.114537,3.062040,25.290907,-29.977322,-48.128517
87,573615796,24.625202,-19.976809,70.954575,-1.866540,3.331007,2.447092,10.612627,-26.618961,-14.003345
88,573632463,24.636126,-20.250252,71.190239,-1.442329,4.150701,1.925172,5.764027,-11.904317,19.008070
89,573649130,24.566269,-20.345327,71.959709,-1.984848,3.115829,1.811439,12.062277,10.325583,41.841885
90,573665797,24.567413,-20.278585,72.980202,-2.364075,1.953893,1.892011,21.554380,25.010284,50.654625
91,573682464,24.663586,-20.094486,74.001564,-2.927011,1.154263,2.161158,27.140221,31.493343,47.778248
92,573699131,24.799812,-19.879065,74.874519,-3.145388,1.029830,2.467978,26.297981,29.833727,39.399601
93,573715798,24.969421,-19.662165,75.566673,-2.224339,1.750645,2.165722,24.437115,25.750275,30.075956
94,573732465,25.213408,-19.411699,76.247818,-1.196510,2.970472,1.681310,28.518721,27.451738,28.616655
95,573749132,25.507757,-19.097727,77.176567,-1.088033,3.681027,1.526311,36.239597,37.065033,39.559643
96,573765799,25.681324,-18.785322,78.486984,-2.199837,2.839839,1.990560,36.135250,46.546680,59.052811
97,573782466,25.425213,-18.634689,80.044014,-3.264750,1.692009,2.169892,14.799055,43.843937,76.005905
98,573799133,24.524860,-18.725246,81.583763,-3.117376,1.338759,1.962560,-24.237505,29.556564,81.700760
99,573815800,22.997858,-18.994757,82.990944,-2.709110,1.060556,1.962502,-64.132172,14.933285,79.728958
100,573832467,21.058584,-19.368713,84.301277,-1.977569,1.301966,1.706302,-90.335541,4.597011,77.334518
101,573849134,19.030825,-19.642086,85.596863,-1.262562,2.053833,1.157112,-95.520103,7.262173,74.559586
102,573865801,16.958769,-19.758549,86.958672,-0.982086,2.203780,0.878000,-96.592354,14.682453,75.419563
103,573882468,14.738447,-19.821383,88.390297,-1.164062,1.797025,0.810796,-103.946075,16.022081,78.881340
104,573899135,12.221084,-19.980356,89.864311,-1.344631,1.133942,0.511280,-120.745995,7.693889,83.195694
105,573915802,9.403860,-20.294415,91.341721,-1.082951,0.846423,-0.068466,-138.319931,-5.301567,85.399475
106,573932469,6.478580,-20.618309,92.780922,-0.505131,1.083100,-0.439138,-145.139725,-10.466626,82.941254
107,573949136,3.753468,-20.709324,94.145111,0.078741,1.539500,-0.642845,-134.424133,-1.000632,76.892662
108,573965803,1.393214,-20.471209,95.365326,0.464986,1.396959,-0.615680,-115.668312,14.965593,67.952354
109,573982470,-0.673939,-19.995768,96.425423,0.293012,0.973589,-0.706785,-101.823906,26.523540,59.640408
110,573999137,-2.738912,-19.477131,97.389336,-0.163172,0.433170,-0.782228,-104.159691,27.111465,55.478085
111,574015804,-5.099662,-19.086535,98.341461,-0.487896,0.074716,-0.938055,-122.566650,17.327646,55.542042
112,574032471,-7.757671,-18.838045,99.297096,-0.122050,0.364371,-1.378687,-140.633148,6.379697,55.710411
113,574049138,-10.389162,-18.535908,100.248589,0.960690,1.255543,-1.517365,-139.379868,7.011557,56.423347
114,574065805,-12.657785,-18.035521,101.046280,1.662124,1.376313,-1.308531,-120.876335,17.982845,50.688400
115,574082472,-14.551491,-17.414511,101.670624,1.384991,1.138246,-0.753205,-101.987457,25.471087,43.607464
116,574099139,-16.222443,-16.698334,102.130920,0.426235,0.859667,-0.563177,-91.919693,32.076771,37.031338
117,574115806,-17.759249,-15.920048,102.454788,0.285545,0.650984,-0.999213,-86.505600,36.862846,31.658894
118,574132473,-19.140011,-15.117157,102.643440,1.017909,0.621031,-1.718824,-79.573425,39.904419,25.772079
119,574149140,-20.314537,-14.301566,102.749214,1.460030,0.331818,-1.687554,-68.610123,41.650196,22.476969
120,574165807,-21.382265,-13.564165,102.826492,1.149883,0.192171,-0.984802,-62.692741,37.405678,20.130663
121,574182474,-22.463202,-12.953629,102.849968,0.337597,0.032767,-0.534123,-64.273102,31.130892,15.135680
122,574199141,-23.655151,-12.432972,102.797737,0.026563,0.146455,-0.589810,-71.944466,27.598585,9.614566
123,574215808,-24.820671,-11.900247,102.622269,0.870074,0.365723,-1.011646,-71.886276,31.029028,3.938416
124,574232475,-25.847910,-11.312297,102.329819,1.600613,0.205546,-1.800681,-64.899918,36.899822,-0.240444
125,574249142,-26.815538,-10.730879,101.953957,1.478820,0.046945,-2.118400,-62.101208,38.746529,-4.170032
126,574265809,-27.868443,-10.259795,101.568550,0.760209,0.034334,-1.787391,-67.114700,33.214447,-7.023488
127,574282476,-29.194565,-9.975689,101.222534,0.152850,0.258058,-0.636316,-82.940689,22.399591,-9.607999
128,574299143,-30.580864,-9.790159,100.796677,0.988260,0.597807,0.358935,-87.291039,19.858061,-16.067699
129,574315810,-31.612619,-9.488936,100.156952,2.399318,0.571015,0.206135,-68.057350,32.687202,-22.860615
130,574332477,-32.171989,-9.051461,99.285706,2.619629,0.340048,-0.007286,-41.703850,47.208679,-29.724865
131,574349144,-32.607506,-8.660028,98.267937,1.444630,-0.608681,-0.449899,-35.247700,49.818417,-38.160419
132,574365811,-33.247890,-8.481070,97.273674,0.072033,-1.048561,0.091196,-47.028549,38.746693,-43.466408
133,574382478,-34.234459,-8.492330,96.365051,0.133333,-0.808716,0.207592,-66.957039,27.047222,-44.992863
134,574399145,-35.444633,-8.581440,95.520195,0.795063,-0.992741,0.131333,-79.856407,21.905630,-43.969406
135,574415812,-36.848072,-8.742498,94.740402,1.096882,-1.187594,-0.136251,-90.975639,17.137653,-42.825008
136,574432479,-38.398216,-8.979239,93.995872,1.025906,-1.051296,-0.168789,-99.611832,13.344236,-43.398468
137,574449146,-39.927292,-9.249330,93.197777,0.866578,-0.447577,0.471568,-99.051483,14.932256,-46.650288
138,574465813,-41.350002,-9.452913,92.236732,0.738639,0.062358,1.080118,-94.456108,25.433537,-50.889427
139,574482480,-42.708244,-9.557687,91.102577,0.764701,-0.309150,0.458341,-92.455963,37.904881,-53.812019
140,574499147,-44.202316,-9.637897,89.921173,0.665113,-1.248569,-0.682298,-101.188583,42.219437,-53.790829
141,574515814,-46.063835,-9.859120,88.860092,0.766750,-1.683840,-1.108225,-122.198700,32.749119,-53.419643
142,574532481,-48.195217,-10.249053,87.943993,0.338585,-1.278055,-0.364781,-137.207703,21.376740,-53.702667
143,574549148,-50.319439,-10.677445,87.030159,0.646499,-0.595579,0.554452,-137.141861,21.705690,-54.398319
144,574565815,-52.116756,-11.040573,85.951813,1.031932,-0.645658,1.276457,-119.761238,33.508266,-56.507607
145,574582482,-53.496838,-11.335697,84.703674,1.153513,-0.918637,1.369880,-97.071289,45.438919,-58.237602
146,574599149,-54.582146,-11.624619,83.381470,1.074089,-1.669286,0.823917,-80.643593,50.368412,-59.403992
147,574615816,-55.516029,-11.987846,82.150261,0.387131,-2.149817,0.927411,-70.883484,44.387325,-58.998150
148,574632483,-56.349888,-12.402074,81.038307,-0.123435,-2.030234,1.390061,-63.864727,37.699425,-56.829830
149,574649150,-57.075901,-12.802260,79.991638,-0.024309,-2.151737,1.704913,-57.006264,35.647331,-53.422592
150,574665817,-57.691769,-13.171861,79.003799,-0.122338,-2.497766,1.627625,-50.019466,34.280552,-49.522854
151,574682484,-58.225082,-13.519415,78.102142,-0.323942,-2.775420,1.384115,-44.233143,31.135685,-45.321995
152,574699151,-58.626614,-13.809372,77.321762,-0.523769,-2.701124,1.651591,-34.905640,27.218784,-38.367249
153,574715818,-58.906960,-14.017921,76.646980,-0.616473,-2.609862,1.914290,-26.309198,24.671183,-30.800434
154,574732485,-59.105930,-14.150785,76.068405,-0.563851,-2.811965,1.782887,-20.138948,22.309233,-23.903702
155,574749152,-59.239658,-14.216539,75.594604,-0.422409,-2.929738,1.525955,-14.743752,19.180534,-17.245417
156,574765819,-59.329353,-14.223381,75.236244,-0.169057,-2.983595,1.304370,-10.416084,15.230031,-10.735834
157,574782486,-59.384754,-14.170954,75.027473,-0.059440,-2.802954,1.340318,-6.146539,9.564484,-3.226561
158,574799153,-59.390881,-14.065560,74.959473,-0.175423,-2.431767,1.436584,-1.111476,4.133909,3.679949
159,574815820,-59.306076,-13.898731,74.978760,0.056332,-2.010960,1.458971,5.618244,1.639335,9.427507
160,574832487,-59.077919,-13.658370,75.026382,0.253216,-1.853877,1.065263,14.627195,2.486004,14.061717
161,574849154,-58.743275,-13.373500,75.116089,0.102078,-1.805491,0.624894,21.593004,1.832728,17.579100
162,574865821,-58.389572,-13.081682,75.279709,0.166477,-1.625431,0.301434,23.726963,-1.542825,20.157282
163,574882488,-58.056351,-12.789591,75.530296,0.159516,-1.613407,0.056653,23.621178,-5.753889,22.852587
164,574899155,-57.771904,-12.509668,75.892319,0.208406,-1.551928,0.051292,22.088682,-11.581348,25.722925
165,574915822,-57.540123,-12.262888,76.347389,0.320039,-1.496098,0.122142,20.027880,-17.141167,26.998055
166,574932489,-57.305862,-12.045956,76.861351,0.399470,-1.726843,0.203340,20.814135,-20.932255,27.420660
167,574949156,-56.992058,-11.856365,77.400528,0.655116,-1.991510,0.423125,25.795155,-22.961826,26.941345
168,574965823,-56.528915,-11.697811,77.932663,0.957030,-1.821123,0.888167,34.576954,-23.477680,25.301210
169,574982490,-55.894135,-11.519037,78.436096,1.057842,-1.711902,0.862755,44.441250,-21.180258,25.578051
170,574999157,-55.124557,-11.271414,78.960876,0.992321,-1.637588,0.563391,52.675072,-19.586069,29.928720
171,575015824,-54.366455,-10.976198,79.582771,0.542172,-1.856691,-0.069268,52.967941,-22.239351,35.800117
172,575032491,-53.756390,-10.732399,80.364090,0.133612,-2.199766,-0.488446,45.717968,-31.266541,39.062759
173,575049158,-53.321682,-10.628554,81.298431,0.311959,-2.323696,-0.292516,36.760635,-43.193436,37.949440
174,575065825,-52.862541,-10.630429,82.271317,0.768115,-2.021115,0.004322,38.602177,-48.528587,34.551487
175,575082492,-52.156441,-10.600536,83.179306,1.099720,-1.728472,0.174214,52.691071,-43.988956,34.195118
176,575099159,-51.154911,-10.481209,84.002197,1.229527,-1.415590,0.252345,69.414238,-36.224041,35.908062
177,575115826,-49.919506,-10.262171,84.771973,1.197505,-0.901788,0.389817,82.734352,-29.327074,39.203979
178,575132493,-48.657787,-10.008905,85.549950,0.577802,-1.244568,0.120347,84.213791,-27.533482,41.669827
179,575149160,-47.594891,-9.854993,86.452248,0.345510,-1.622458,0.078088,73.410370,-36.159084,42.645584
180,575165827,-46.796467,-9.880919,87.480705,0.771528,-1.202889,0.517219,58.780628,-48.285583,40.343880
181,575182494,-46.126751,-10.039971,88.521187,1.101808,-0.857832,0.514446,51.280548,-53.771152,35.610069
182,575199161,-45.340946,-10.155521,89.501732,1.436412,-0.424035,0.047315,57.765240,-48.951687,35.633644
183,575215828,-44.367760,-10.096488,90.425262,1.481722,-0.702037,-0.458947,68.436821,-38.596817,41.333714
184,575232495,-43.424179,-10.005520,91.386032,1.366497,-0.950992,-0.958298,66.981743,-38.065147,44.853580
185,575249162,-42.766953,-10.085129,92.414780,1.258310,-1.043265,-1.328246,50.509346,-47.652355,41.279980
186,575265829,-42.335842,-10.417008,93.451607,1.654933,-0.130302,-0.405822,37.248005,-58.708870,31.785215
187,575282496,-41.858883,-10.903781,94.322083,1.728540,0.717949,0.490108,38.593285,-58.728706,18.664917
188,575299163,-41.113411,-11.387142,94.964798,1.556057,1.013867,0.652637,52.499760,-49.436222,9.287331
189,575315830,-40.013290,-11.719855,95.419678,1.498499,1.191835,0.348397,71.794876,-35.192352,7.481454
190,575332497,-38.704311,-11.874705,95.784447,1.137943,0.467984,-0.677510,83.337349,-23.409266,10.827579
191,575349164,-37.492496,-12.052696,96.204689,0.411599,-0.796708,-1.640724,78.263672,-26.261333,12.976897
192,575365831,-36.576389,-12.458547,96.740417,-0.026651,-1.265134,-1.694078,62.114357,-40.991768,10.557694
193,575382498,-35.873463,-13.094464,97.296577,0.623926,-0.175143,-0.848846,49.882111,-52.662815,3.861103
194,575399165,-35.111565,-13.791623,97.719093,1.003137,0.503892,-0.296649,51.933273,-51.018257,-4.059088
195,575415832,-34.120266,-14.421394,98.032761,0.880193,0.636351,-0.152761,64.391113,-44.112877,-6.292676
196,575432499,-32.960484,-14.965382,98.301796,0.662412,0.249443,-0.431358,74.011749,-38.480034,-4.869120
197,575449166,-31.826384,-15.568977,98.531876,0.621493,-0.283487,-0.576887,72.009918,-40.360367,-8.001294
198,575465833,-30.712439,-16.323507,98.644592,0.749107,-0.102367,-0.266896,69.025810,-44.718277,-17.790958
199,575482500,-29.529896,-17.133404,98.603920,0.441072,-0.138644,-0.139611,70.580933,-43.507469,-26.257290
200,575499167,-28.291731,-17.948994,98.475700,0.184367,-0.407466,-0.258855,72.304169,-41.938190,-29.928900
201,575515834,-27.164520,-18.828236,98.351372,-0.241988,-0.873400,-0.735520,65.611259,-46.054493,-30.663946
202,575532501,-26.327023,-19.920261,98.280685,-0.629469,-1.087194,-0.965736,49.172123,-59.365566,-32.909496
203,575549168,-25.528214,-21.193605,98.134644,0.353635,1.119410,0.153321,45.180351,-67.780815,-40.630253
204,575565835,-24.464464,-22.314226,97.781792,0.899709,3.223570,0.847393,56.307667,-55.284119,-46.083275
205,575582502,-23.001669,-23.138330,97.234673,0.212702,2.547582,0.694494,75.417130,-35.721222,-47.466751
206,575599169,-21.370115,-23.842033,96.628525,-0.527990,1.662478,0.520617,83.726685,-29.130764,-46.686150
207,575615836,-19.915129,-24.608994,96.046333,-1.103593,1.131406,0.129711,73.297363,-34.457752,-45.888371
208,575632503,-18.611269,-25.454851,95.453392,-0.846809,1.714134,-0.046188,63.503117,-39.895401,-47.025581
209,575649170,-17.303032,-26.231777,94.726913,-0.351378,2.342118,-0.099061,59.815903,-34.863449,-51.535923
210,575665837,-15.943772,-26.889360,93.826225,-0.774175,1.931865,-0.349733,57.713787,-26.582457,-57.456387
211,575682504,-14.615029,-27.507107,92.781326,-1.443802,1.534045,-0.787451,51.389351,-23.656183,-63.410473
212,575699171,-13.450446,-28.188620,91.687401,-1.973286,1.444000,-1.111713,39.526901,-28.187534,-66.072342
213,575715838,-12.533482,-29.042152,90.611099,-2.025982,1.611748,-0.744779,24.397171,-39.738083,-66.600487
214,575732505,-11.681561,-30.016125,89.470177,-1.331956,2.403004,-0.014526,17.681067,-47.222595,-70.336517
215,575749172,-10.473456,-30.790606,88.102264,-0.647137,3.530444,0.510507,31.247372,-34.569378,-78.240593
216,575765839,-8.865307,-31.208006,86.511330,-1.049645,3.378042,-0.123201,47.616463,-13.499184,-84.716972
217,575782506,-7.047285,-31.516836,84.795853,-1.611460,2.984631,-0.198090,55.792324,-8.727872,-89.459518
218,575799173,-5.293050,-31.926418,83.069855,-2.119598,2.739274,0.610202,51.073948,-17.495743,-90.073128
219,575815840,-3.762228,-32.395107,81.456177,-2.025127,3.116366,0.870453,40.577095,-24.084188,-83.776886
220,575832507,-2.480774,-32.781216,80.080193,-2.085326,2.927962,0.272434,32.680874,-21.857361,-70.563713
221,575849174,-1.550793,-33.207375,78.972397,-2.367964,2.543755,-0.056346,19.849840,-26.096046,-56.461563
222,575865841,-0.937614,-33.755432,78.091553,-2.127402,2.549467,1.049744,7.871314,-34.415054,-44.631207
223,575882508,-0.548448,-34.267799,77.420105,-1.298377,2.863180,1.940467,1.040454,-32.795689,-33.641350
224,575899175,-0.258892,-34.600719,76.995361,-0.555818,2.838095,1.699764,3.180922,-22.306902,-21.007500
225,575915842,0.004342,-34.759426,76.885063,-0.352494,2.565738,1.498842,12.237511,-11.983389,-5.317855
226,575932509,0.225288,-34.770760,77.125031,-0.392055,2.405115,1.701908,21.675695,-3.120645,11.972548
227,575949176,0.389162,-34.647247,77.674835,-1.057772,1.737996,1.756021,28.819134,5.096002,27.220133
228,575965843,0.457375,-34.450718,78.441406,-1.230957,1.550910,1.749867,30.380362,9.617208,37.938210
229,575982510,0.434601,-34.185608,79.300270,-1.539873,1.350789,1.539136,27.886091,13.786919,42.577435
230,575999177,0.322717,-33.883709,80.211487,-1.839241,0.961371,1.403903,24.086025,15.965103,45.328819
231,576015844,0.095664,-33.577011,81.145660,-1.902671,0.915038,1.323371,17.694187,16.126522,46.690952
232,576032511,-0.275001,-33.298168,82.093430,-1.713768,0.940153,1.447841,9.286154,14.214388,47.624191
233,576049178,-0.850797,-33.057484,83.068962,-1.859587,1.065253,1.548210,-2.321953,11.519640,49.282951
234,576065845,-1.680641,-32.836601,84.117188,-2.068492,1.370814,1.361019,-15.397143,9.648585,53.213596
235,576082512,-2.813608,-32.646271,85.258812,-1.834665,1.667350,0.830467,-30.747698,6.721855,58.174320
236,576099179,-4.232714,-32.534645,86.508385,-1.542936,1.617441,0.696810,-44.580589,0.379755,63.622112
237,576115846,-5.750550,-32.459042,87.870758,-1.332875,1.310643,1.393482,-46.974987,-3.896250,69.241547
238,576132513,-7.211941,-32.287354,89.305244,-1.039752,1.665822,1.520574,-41.420887,-0.380947,73.556259
239,576149180,-8.530765,-31.935444,90.706398,-0.838760,2.167719,1.243274,-34.263203,8.759166,73.597221
240,576165847,-9.753015,-31.433231,91.992699,-1.219717,2.260395,0.640528,-32.618885,16.918844,69.795074
241,576182514,-11.022625,-30.871386,93.208664,-1.652629,1.959273,0.192481,-38.257618,19.513954,67.660233
242,576199181,-12.511462,-30.369034,94.464157,-1.673023,1.135859,0.109945,-50.775944,13.907333,69.797264
243,576215848,-14.250988,-29.980911,95.807350,-1.353845,0.974136,0.053664,-63.684078,4.158111,73.348709
244,576232515,-16.181990,-29.652361,97.201675,-0.943071,1.224508,-0.332858,-74.079041,-2.398083,75.400955
245,576249182,-18.174683,-29.332760,98.542351,-0.729522,1.451704,-0.615211,-79.773048,-4.723049,72.750572
246,576265849,-19.969366,-28.953653,99.739807,-0.152831,1.715389,-0.193540,-72.508728,-1.362348,66.933960
247,576282516,-21.337303,-28.415533,100.724510,0.980503,2.730446,0.584023,-53.527760,9.580992,60.093418
248,576299183,-22.356770,-27.675369,101.532013,1.242836,3.271381,0.808310,-38.193111,22.968075,56.414440
249,576315850,-23.310286,-26.834280,102.314690,0.198748,2.404409,0.058674,-35.503838,27.982891,58.254173
250,576332517,-24.496817,-26.081739,103.305527,-1.057386,0.576556,-0.122529,-44.493488,17.394438,67.154465
251,576349184,-26.018850,-25.452126,104.545746,-0.942050,0.021719,0.063684,-58.763062,3.256679,76.920738
252,576365851,-27.679657,-24.837700,105.798569,0.066426,0.712738,-0.145082,-67.492027,-0.158587,77.568588
253,576382518,-29.227528,-24.117773,106.852493,0.726420,1.210307,-0.744468,-66.448685,8.244155,71.391838
254,576399185,-30.571552,-23.289522,107.659668,0.837330,1.048785,-0.924978,-60.943584,18.664976,63.429626
255,576415852,-31.747368,-22.411316,108.263924,0.192805,0.447202,-0.475519,-56.233620,25.493664,56.074604
256,576432519,-32.831402,-21.473787,108.716995,0.009317,-0.061638,-0.449753,-54.641365,31.772934,51.590073
257,576449186,-33.919201,-20.503462,109.102554,0.422754,-0.121054,-0.498019,-56.737812,34.430180,50.288834
258,576465853,-35.077675,-19.550814,109.432739,0.713452,-0.054335,-1.019866,-62.477654,34.255024,47.942432
259,576482520,-36.379906,-18.688095,109.695694,0.773817,-0.462049,-1.470546,-72.712524,31.005703,42.559406
260,576499187,-37.699791,-17.960733,109.861053,0.446603,-1.097564,-1.136992,-75.814819,26.845362,34.044834
261,576515854,-38.829582,-17.263027,109.856392,0.607359,-1.027164,-1.028157,-67.614143,30.715218,25.951305
262,576532521,-39.716579,-16.492760,109.671677,1.007613,-0.443256,-1.038770,-56.176292,40.163754,21.293388
263,576549188,-40.444675,-15.644345,109.366898,1.171132,0.026766,-1.011679,-48.484146,47.934582,19.573898
264,576565855,-41.269398,-14.844418,109.052666,0.696446,-0.511846,-0.883764,-54.173153,45.868767,17.888878
265,576582522,-42.355236,-14.253027,108.783920,-0.353455,-1.277593,-0.370049,-68.930641,34.517685,12.277127
266,576599189,-43.592293,-13.788958,108.449852,-0.171759,-0.333963,-0.058145,-78.812294,31.287870,5.008121
267,576615856,-44.742126,-13.296491,107.886185,0.506139,0.211277,-0.029793,-76.642509,41.762947,-2.733102
268,576632523,-45.827457,-12.799296,107.076004,0.784122,-0.361795,-0.950212,-75.828323,52.294193,-11.850614
269,576649190,-47.092491,-12.409528,106.166885,1.053617,-0.780834,-1.828112,-87.537102,52.352924,-19.447296
270,576665857,-48.718536,-12.223450,105.322800,0.730059,-1.128177,-1.997719,-108.098099,41.845886,-24.605314
271,576682524,-50.572334,-12.210021,104.583450,0.339357,-1.007890,-0.743666,-120.348083,31.203167,-27.175499
272,576699191,-52.402462,-12.222602,103.837440,0.714218,-0.513643,0.382624,-119.015594,31.394825,-27.541609
273,576715858,-53.962688,-12.194128,102.932564,1.373923,-0.607028,0.598155,-104.831100,41.132401,-30.140987
274,576732525,-55.198418,-12.176536,101.848801,1.821440,-0.934358,0.225334,-87.603699,50.031502,-35.682213
275,576749192,-56.189041,-12.235890,100.642616,2.122896,-1.036819,0.213831,-74.473579,54.040775,-42.511795
276,576765859,-57.008602,-12.407009,99.416779,1.568659,-1.415473,0.671112,-64.602699,51.951656,-47.829563
277,576782526,-57.704681,-12.619041,98.246880,0.966473,-1.631022,0.993365,-56.706562,48.449692,-47.380440
278,576799193,-58.315296,-12.826795,97.155212,0.996885,-2.010020,0.804823,-50.797844,45.186966,-44.123508
279,576815860,-58.867229,-13.020865,96.172684,1.073650,-2.457155,0.193364,-46.036987,40.563110,-39.588604
280,576832527,-59.327385,-13.221634,95.322784,0.659195,-2.684288,0.292509,-38.922783,34.013084,-35.552719
281,576849194,-59.618317,-13.417486,94.523232,0.147150,-2.357578,1.098236,-28.247887,31.816422,-33.546913
282,576865861,-59.687138,-13.574944,93.697960,0.162492,-2.230274,1.585760,-15.427251,34.339149,-32.196800
283,576882528,-59.561134,-13.709896,92.875969,0.090856,-2.537733,1.424758,-3.815387,34.808617,-30.944248
284,576899195,-59.378162,-13.877009,92.124962,-0.010323,-2.713627,0.958480,0.491837,30.140379,-30.587664
285,576915862,-59.205734,-14.069407,91.505379,0.093908,-2.902664,0.486115,1.624013,22.656591,-28.077869
286,576932529,-58.979393,-14.231098,91.018074,0.137418,-2.739198,0.566416,6.686067,16.865301,-22.621571
287,576949196,-58.678627,-14.328583,90.588478,0.337128,-2.229878,1.042670,11.940048,15.859006,-17.675329
288,576965863,-58.293102,-14.341792,90.162643,0.486020,-1.950994,1.248255,17.058828,18.196793,-13.358764
289,576982530,-57.910244,-14.286405,89.785057,0.383293,-2.026703,1.074177,17.622818,17.895426,-8.531919
290,576999197,-57.628117,-14.192478,89.522354,0.492011,-2.003630,1.049836,13.305218,13.419516,-3.134550
291,577015864,-57.459194,-14.071982,89.386917,0.533669,-1.888313,1.081717,8.407584,8.013366,2.111813
292,577032531,-57.344044,-13.895942,89.343819,0.581100,-1.742206,1.071813,6.541390,5.288685,7.778291
293,577049198,-57.198006,-13.641397,89.349045,0.636820,-1.582621,1.096014,9.098748,5.471921,13.247279
294,577065865,-57.015778,-13.332348,89.365921,0.548219,-1.541237,0.896786,11.431573,6.711223,16.333147
295,577082532,-56.825066,-13.004884,89.410973,0.288851,-1.714038,0.565524,12.322554,5.985218,18.125515
296,577099199,-56.686260,-12.725979,89.514214,0.076129,-1.787432,0.385910,9.972850,1.577546,17.529030
297,577115866,-56.596920,-12.536661,89.671188,0.187581,-1.764457,0.684270,7.684720,-3.979231,14.761262
298,577132533,-56.490856,-12.451943,89.854599,0.181406,-1.627928,0.953682,9.012099,-8.719249,10.382084
299,577149200,-56.270477,-12.416872,90.012367,0.026904,-1.525564,0.700020,15.526970,-9.099807,7.084616
300,577165867,-55.810963,-12.315248,90.121246,-0.002879,-1.236869,0.588230,29.236670,-4.453218,8.829886
301,577182534,-55.154213,-12.110980,90.191811,0.066007,-1.049559,0.584912,40.566563,0.960937,12.657844
302,577199201,-54.440186,-11.869577,90.272537,-0.037388,-1.159719,0.392757,44.115654,1.899760,14.774734
303,577215868,-53.789337,-11.670808,90.421341,-0.076421,-1.182730,0.283227,41.137733,-2.669937,14.991463
304,577232535,-53.244564,-11.544709,90.655418,0.007650,-1.086617,0.203879,35.778809,-9.150878,14.467816
305,577249202,-52.768002,-11.451253,90.959869,0.131208,-1.050272,-0.081954,32.500385,-13.519464,15.458386
306,577265869,-52.288174,-11.315890,91.338676,0.367790,-1.025054,-0.119387,33.540035,-15.335534,20.202213
307,577282536,-51.766781,-11.127322,91.787743,0.669466,-0.885397,0.258132,36.792698,-16.476231,25.384108
308,577299203,-51.232040,-10.912962,92.296623,0.773477,-0.824324,0.319218,38.187717,-18.048964,28.917204
309,577315870,-50.715206,-10.695029,92.859833,0.836717,-0.891527,0.144954,37.614201,-20.160223,31.255684
310,577332537,-50.221031,-10.506130,93.480751,0.804623,-1.039573,0.038467,36.778259,-23.650108,32.250103
311,577349204,-49.721207,-10.363655,94.127701,0.636211,-1.085623,0.139925,37.292473,-26.348824,31.292608
312,577365871,-49.141712,-10.235518,94.734108,0.713663,-0.996711,0.365957,41.548344,-24.816078,29.310575
313,577382538,-48.460777,-10.075766,95.257713,1.112078,-1.127486,0.319727,46.669846,-19.579367,27.771372
314,577399205,-47.662769,-9.905704,95.745384,1.474303,-1.478084,0.044144,53.232952,-17.243000,27.037655
315,577415872,-46.758041,-9.767738,96.244904,1.409902,-1.173742,0.128703,59.683575,-18.681194,26.321594
316,577432539,-45.724483,-9.634942,96.736969,1.409564,-0.640773,0.642822,67.271507,-18.145710,26.067265
317,577449206,-44.578426,-9.478102,97.210098,1.410465,-0.315350,0.814433,73.763191,-15.853349,26.597761
318,577465873,-43.371380,-9.304506,97.686066,1.194267,-0.738779,0.414953,77.371643,-14.716114,27.694036
319,577482540,-42.198425,-9.170820,98.228500,1.095597,-1.167817,-0.244866,75.893890,-18.582338,29.207474
320,577499207,-41.110016,-9.160331,98.863403,0.876301,-1.426387,-0.361791,71.664421,-27.177191,28.697115
321,577515874,-40.097378,-9.291471,99.532669,0.588798,-1.256912,-0.108862,67.489792,-34.428959,25.155727
322,577532541,-39.058025,-9.504074,100.134972,0.825484,-0.391817,0.416284,68.556129,-35.218220,19.536629
323,577549208,-37.899929,-9.689776,100.593010,1.177476,0.286090,0.401901,74.363342,-28.256351,14.466944
324,577565875,-36.591335,-9.810638,100.900490,1.277027,-0.015478,-0.140319,81.938080,-19.450212,10.275390
325,577582542,-35.212692,-9.936266,101.125542,1.127107,-0.629551,-0.492518,85.336304,-16.574537,6.539680
326,577599209,-33.850288,-10.158037,101.311844,0.844471,-1.034978,-0.505121,83.998993,-19.881561,1.713631
327,577615876,-32.486206,-10.510482,101.443977,1.143701,-0.138077,0.032437,83.574875,-24.650551,-4.845565
328,577632543,-31.019157,-10.925819,101.461250,1.053482,0.646226,0.305842,88.524078,-24.406097,-12.059247
329,577649210,-29.450136,-11.338155,101.368408,0.543327,0.971267,0.227046,93.376190,-21.299267,-16.991632
330,577665877,-27.856655,-11.710654,101.211967,0.088577,0.338224,-0.515088,94.048454,-17.876547,-18.597759
331,577682544,-26.409313,-12.142271,101.059784,0.000056,-0.427884,-1.274172,85.269279,-21.648129,-19.566587
332,577699211,-25.198914,-12.757285,100.897202,0.196481,-0.720296,-1.557446,70.836060,-31.750822,-24.446035
333,577715878,-24.073027,-13.527866,100.648109,0.731817,0.386943,-1.303169,64.470383,-38.638256,-32.306381
334,577732545,-22.879034,-14.324386,100.243942,0.875009,0.804312,-1.580873,66.119766,-37.135731,-40.430904
335,577749212,-21.578812,-15.161743,99.714394,0.727541,0.807339,-1.717175,70.248489,-37.556217,-47.249554
336,577765879,-20.331888,-16.136282,99.103394,0.276351,0.340878,-1.656291,65.249283,-44.644104,-53.683018
337,577782546,-19.321875,-17.361012,98.414528,-0.292834,-0.253802,-1.713282,49.016548,-58.366508,-61.958832
338,577799213,-18.292650,-18.776123,97.571106,-0.328596,0.241654,-2.106242,46.380722,-67.522514,-72.721886
339,577815880,-16.839565,-20.054451,96.478050,0.276832,1.792619,-2.111069,65.704041,-57.112415,-81.921196
340,577832547,-14.816963,-20.939297,95.107628,0.157643,2.026335,-1.703616,92.887589,-32.721348,-88.385269
341,577849214,-12.428070,-21.556948,93.534874,-0.624261,1.074344,-1.314342,109.458557,-17.942776,-94.010254
342,577865881,-10.072767,-22.200506,91.890739,-1.684937,0.285430,-1.057377,104.880417,-22.644516,-97.123611
343,577882548,-8.079023,-23.108030,90.295372,-2.453389,0.147640,-0.879753,83.074890,-42.463024,-95.616028
344,577899215,-6.578870,-24.365559,88.781593,-2.689621,0.710445,-0.424831,53.762569,-66.850792,-91.882347
345,577915882,-5.417498,-25.830580,87.259224,-2.482169,1.816589,0.099684,31.241518,-81.391022,-91.249069
346,577932549,-4.344473,-27.228146,85.661789,-2.293566,2.939919,0.348037,21.869688,-78.857742,-92.377800
347,577949216,-3.254454,-28.407230,83.986031,-2.376300,3.637081,0.341663,18.773233,-67.290779,-93.213303
348,577965883,-2.330499,-29.437092,82.268402,-3.001246,3.755160,-0.340113,5.874597,-59.902878,-92.919739
349,577982550,-1.826084,-30.570950,80.530762,-4.022368,3.172199,-1.565648,-21.599428,-67.277138,-92.500748
350,577999217,-1.745448,-32.090988,78.762489,-4.235940,2.943372,-1.398404,-50.070271,-90.884666,-93.218819
351,578015884,-1.721038,-33.885075,76.855682,-1.429100,5.477691,1.520813,-60.588055,-107.230705,-98.975967
352,578032551,-1.241275,-35.270538,74.809067,1.135458,7.267649,4.047593,-40.678852,-83.006599,-103.021538
353,578049218,-0.125790,-35.822678,73.036369,1.771499,6.248834,3.712681,5.307755,-34.596436,-86.740112
354,578065885,1.207882,-35.713871,72.062859,1.506794,5.072881,2.144408,46.090466,3.593946,-47.278854
355,578082552,2.222228,-35.376755,72.079544,-0.002457,3.336429,1.525898,61.644840,17.772045,0.372395
356,578099219,2.485484,-35.250027,73.044289,-2.011413,1.987620,1.792171,49.454636,7.077310,47.036472
357,578115886,2.008775,-35.349522,74.635071,-1.921082,2.133319,2.718688,26.743233,-5.364966,78.222527
358,578132553,1.251197,-35.350155,76.493423,-1.600872,2.424365,3.157986,19.246296,0.100488,91.057991
359,578149220,0.564442,-35.042812,78.396576,-1.843817,2.461119,3.039015,24.795385,17.473902,93.156815
360,578165887,-0.021888,-34.452885,80.255020,-2.659658,1.899264,2.414289,28.555897,33.391239,91.596855
361,578182554,-0.699372,-33.794964,82.050430,-3.378979,0.971401,1.831081,19.962591,36.482941,89.575394
362,578199221,-1.730927,-33.284161,83.787437,-3.774177,0.297600,1.214671,-4.137176,26.373186,87.653381
363,578215888,-3.225578,-33.014511,85.501869,-3.697258,-0.288957,0.892802,-33.262009,10.018223,86.903229
364,578232555,-5.066914,-32.951454,87.180634,-3.061658,-0.110142,1.018085,-55.483406,-4.754888,84.717644
365,578249222,-6.960324,-32.869404,88.783493,-2.047683,0.892132,1.292768,-61.200253,-5.978785,80.986328
366,578265889,-8.674643,-32.574368,90.288048,-1.512457,1.464231,1.496465,-53.907669,4.794420,77.830017
367,578282556,-10.221549,-32.072895,91.715561,-1.568499,1.483401,1.630131,-46.864361,15.393613,76.521332
368,578299223,-11.767548,-31.473253,93.117065,-1.690382,1.162782,1.343844,-48.327396,19.283754,77.230194
369,578315890,-13.534760,-30.912737,94.540276,-1.963531,0.620253,0.822082,-61.651596,14.422230,78.840088
370,578332557,-15.567606,-30.441765,96.020195,-1.860610,0.549672,0.269871,-76.514694,5.775476,81.221497
371,578349224,-17.672552,-29.955242,97.491173,-1.104149,1.201821,0.200638,-81.750092,3.769477,81.654984
372,578365891,-19.714136,-29.369022,98.865707,-0.846651,1.640263,0.065609,-81.527725,7.971083,79.371269
373,578382558,-21.793272,-28.751293,100.165199,-0.823100,1.608314,-0.406185,-86.721680,8.138664,77.080017
374,578399225,-23.997770,-28.192232,101.436317,-0.518716,1.475661,-1.194819,-95.753120,2.454676,75.036758
375,578415892,-26.225882,-27.688519,102.690765,0.054040,1.713997,-1.689504,-98.262306,-3.206956,73.258972
376,578432559,-28.278532,-27.176291,103.830925,0.789112,2.255955,-2.038503,-91.478462,-2.827029,68.283966
377,578449226,-30.010550,-26.612541,104.797470,0.988368,2.680151,-2.237547,-77.518906,2.017243,61.881031
378,578465893,-31.490276,-25.989868,105.623375,0.793658,3.142158,-2.371132,-66.647972,7.063248,57.521027
379,578482560,-32.978054,-25.403864,106.411743,0.351755,2.643164,-2.629305,-68.575668,4.690812,55.043781
380,578499227,-34.684433,-24.978737,107.295021,-0.370441,1.172510,-2.475936,-79.632874,-7.819660,54.283211
381,578515894,-36.533764,-24.688801,108.275551,-0.129645,0.313356,-1.942302,-86.053062,-19.251154,53.790791
382,578532561,-38.250637,-24.389448,109.111732,0.491107,0.778351,-1.366175,-81.979721,-15.749927,47.425518
383,578549228,-39.636963,-23.938070,109.590630,0.933088,1.022814,-1.177463,-71.217117,2.285992,37.672554
384,578565895,-40.853390,-23.390190,109.729111,0.880084,0.751009,-1.338689,-69.443214,17.873264,27.313711
385,578582562,-42.172710,-22.906557,109.686882,0.230756,-0.527745,-1.446477,-79.938950,20.969820,17.762453
386,578599229,-43.749496,-22.585028,109.636124,-0.138429,-1.674971,-1.050644,-95.570946,13.728141,11.368094
387,578615896,-45.439625,-22.364969,109.568184,0.672667,-1.376005,-0.365354,-102.757500,9.734441,6.864943
388,578632563,-47.025368,-22.142088,109.357620,1.538676,-0.794194,0.223806,-99.714157,15.374631,1.855816
389,578649230,-48.412560,-21.914761,108.938309,1.912282,-0.654394,0.091428,-92.448303,24.096739,-5.302807
390,578665897,-49.599884,-21.724066,108.359962,1.688318,-0.797438,0.239738,-83.915016,29.482149,-12.203018
391,578682564,-50.633881,-21.632254,107.695786,1.026457,-1.061558,1.039578,-76.536087,29.607693,-19.227026
392,578699231,-51.628525,-21.616413,106.986710,1.105136,-1.018923,1.320037,-75.130798,29.037764,-23.779615
393,578715898,-52.546413,-21.614424,106.247688,1.532065,-1.181013,1.162601,-71.181061,30.240746,-24.934271
394,578732565,-53.386017,-21.607744,105.535805,1.711652,-1.241498,0.943453,-65.880554,29.579111,-23.296259
395,578749232,-54.145008,-21.594433,104.870399,1.626059,-1.210625,0.953869,-60.005093,28.035809,-20.994152
396,578765899,-54.832268,-21.586845,104.261620,1.390301,-1.269816,1.238903,-54.447731,25.530502,-19.059919
397,578782566,-55.452595,-21.591705,103.706100,1.066450,-1.403401,1.307936,-49.252522,22.884102,-17.655794
398,578799233,-56.022636,-21.578457,103.231941,0.782799,-1.658471,1.134864,-44.438065,19.925446,-13.942822
399,578815900,-56.548920,-21.526119,102.815178,0.660280,-1.872627,0.538290,-40.526279,18.686789,-10.000553
400,578832567,-56.995728,-21.426136,102.429573,0.767621,-1.918362,0.263696,-35.043350,18.883945,-6.482277
401,578849234,-57.302124,-21.275713,102.005310,0.816008,-1.766556,0.373131,-27.410921,22.394030,-4.985303
402,578865901,-57.496456,-21.091806,101.531143,0.565824,-2.032947,0.099991,-21.703894,25.869015,-4.710144
403,578882568,-57.763134,-20.936695,101.095215,0.193182,-2.524759,-0.423423,-25.142735,23.169235,-4.928903
404,578899235,-58.240612,-20.873739,100.762299,-0.208566,-3.005021,-1.222514,-35.542515,15.385487,-6.405015
405,578915902,-58.860691,-20.909498,100.506996,-0.144428,-2.992038,-1.095064,-42.434204,8.634734,-9.018625
406,578932569,-59.349754,-21.008976,100.136482,0.234735,-2.234901,-0.057947,-37.063484,12.287557,-15.508904
407,578949236,-59.483170,-21.112173,99.497849,0.374293,-1.497445,1.299876,-21.547985,25.165398,-23.260393
408,578965903,-59.306396,-21.215191,98.593185,0.237241,-0.961854,2.278531,-8.758672,37.935822,-30.824385
409,578982570,-59.016804,-21.277548,97.544167,0.004725,-0.881190,2.039812,-5.206724,45.969048,-33.022858
410,578999237,-58.808727,-21.225323,96.535255,0.044605,-0.897387,1.571899,-9.230991,47.450275,-26.184767
411,579015904,-58.808605,-21.047087,95.679688,0.005538,-0.893288,1.482364,-18.278137,44.013866,-15.389190
412,579032571,-59.102940,-20.813339,94.995514,-0.100621,-0.959679,1.415034,-32.096420,37.584599,-7.494201
413,579049238,-59.557972,-20.559195,94.411255,-0.007948,-1.067171,1.042715,-39.459385,33.489899,-3.355936
414,579065905,-59.969498,-20.300533,93.843925,0.202493,-1.086465,1.056451,-36.348915,32.869961,-2.396050
415,579082572,-60.247250,-20.058315,93.259125,0.124432,-1.118407,0.832821,-28.543362,33.291492,-3.561265
416,579099239,-60.392185,-19.848911,92.691826,-0.050265,-1.402513,0.255100,-20.085812,31.506348,-4.673176
417,579115906,-60.486080,-19.700630,92.227936,-0.131657,-1.593594,-0.146124,-14.824419,24.645542,-4.928167
418,579132573,-60.581028,-19.626638,91.897644,-0.091273,-1.564294,-0.378570,-12.140017,15.906466,-5.067404
419,579149240,-60.649292,-19.609705,91.686623,0.001586,-1.457502,-0.228650,-8.120996,8.356565,-4.717567
420,579165907,-60.609966,-19.626066,91.529846,0.114252,-1.171970,0.142181,-0.576593,4.706200,-4.957275
421,579182574,-60.464783,-19.651176,91.397194,0.060120,-1.150212,0.273096,6.262773,3.244175,-4.759660
422,579199241,-60.279999,-19.686886,91.310432,0.164534,-1.140745,0.342490,9.560975,0.654232,-4.047576
423,579215908,-60.076294,-19.735266,91.271759,0.271885,-1.145116,0.526077,11.664163,-2.093762,-3.368994
424,579232575,-59.841488,-19.782297,91.264404,0.345780,-1.150613,0.593610,14.165863,-3.595488,-2.419851
425,579249242,-59.554817,-19.803240,91.278336,0.433302,-1.139623,0.727063,17.710581,-3.868264,-0.458826
426,579265909,-59.235573,-19.779499,91.292969,0.565182,-1.083039,0.783437,19.683649,-2.545867,1.872528
427,579282576,-58.951481,-19.717560,91.337700,0.717038,-1.201399,0.818432,18.184509,-2.825712,4.712749
428,579299243,-58.755802,-19.634489,91.455704,0.857566,-1.346701,0.798868,14.358116,-5.694209,7.934253
429,579315910,-58.608162,-19.522091,91.647377,0.946399,-1.378603,0.958378,12.951136,-8.325944,11.610502
430,579332577,-58.425713,-19.367840,91.883118,0.890689,-1.295181,1.330598,15.896749,-9.115039,15.072365
431,579349244,-58.133484,-19.157074,92.107994,0.841778,-1.108051,1.493412,22.230412,-6.770020,17.668966
432,579365911,-57.724895,-18.869883,92.307190,0.702157,-1.120751,1.235057,28.655609,-3.013168,20.810301
433,579382578,-57.313469,-18.523447,92.549553,0.382933,-1.312912,0.738618,29.597330,-3.050476,25.142529
434,579399245,-57.023651,-18.164591,92.908676,0.161926,-1.396792,0.503758,24.418617,-8.102071,29.387981
435,579415912,-56.884506,-17.835106,93.381271,0.227243,-1.297709,0.442700,17.362909,-14.426070,31.482948
436,579432579,-56.788712,-17.519032,93.916016,0.240466,-1.216447,0.416509,15.740521,-17.818918,32.799046
437,579449246,-56.613022,-17.199020,94.463844,0.262058,-1.104063,0.537559,20.599989,-18.291340,33.471798
438,579465913,-56.264652,-16.853558,94.976234,0.196349,-1.091132,0.534607,30.157843,-15.658296,33.727093
439,579482580,-55.754116,-16.497578,95.465202,0.060418,-1.243361,0.432416,39.300095,-13.979336,33.612099
440,579499247,-55.165062,-16.153357,95.959656,-0.019323,-1.345264,0.187721,43.933392,-14.362933,33.348927
441,579515914,-54.553802,-15.827652,96.467247,0.278994,-1.279406,-0.022947,45.313442,-15.321699,33.026924
442,579532581,-53.929096,-15.512550,96.990952,0.527391,-1.206148,-0.166817,46.217934,-16.135727,33.216347
443,579549248,-53.279217,-15.213331,97.538277,0.694138,-0.973170,0.266987,47.942768,-17.476976,33.433174
444,579565915,-52.577991,-14.928398,98.093948,0.817225,-0.716362,0.771147,50.994232,-18.023003,33.238102
445,579582582,-51.790081,-14.643364,98.634842,0.878699,-0.506401,1.188739,55.806961,-16.943872,32.936699
446,579599249,-50.917736,-14.330903,99.134834,1.037327,-0.432677,1.074724,60.099361,-13.629907,32.970459
447,579615916,-49.980011,-13.993792,99.602020,1.304733,-0.585206,0.655005,63.376690,-10.730691,33.091736
448,579632583,-48.995083,-13.659501,100.071251,1.284284,-0.820864,0.447276,66.081459,-10.405236,33.195076
449,579649250,-47.968269,-13.353258,100.537308,1.254050,-0.868613,0.620806,68.400490,-10.836609,31.970459
450,579665917,-46.874729,-13.098043,100.981705,1.120547,-0.909450,0.901596,71.977432,-11.417673,29.027679
451,579682584,-45.700390,-12.902543,101.393089,1.146487,-0.672933,1.026987,76.278839,-11.946322,25.291573
452,579699251,-44.437321,-12.725619,101.759018,1.548258,-0.097328,0.721587,80.922462,-10.339418,22.830414
453,579715918,-43.036942,-12.482368,102.080040,1.548391,0.124995,0.063323,88.499138,-5.128839,23.864248
454,579732585,-41.606705,-12.195498,102.432236,1.204809,-0.263893,-0.361677,90.606194,-3.846957,27.043633
455,579749252,-40.401451,-12.026455,102.895576,0.935142,-0.626042,-0.504827,78.427086,-12.857522,27.358402
456,579765919,-39.514843,-12.083219,103.462151,0.792152,-0.618781,-0.628735,60.578068,-26.644115,23.494919
457,579782586,-38.777153,-12.338636,104.032959,1.058611,-0.225960,-0.623979,51.788429,-35.702602,16.481741
458,579799253,-37.909271,-12.656633,104.492676,1.277817,0.273708,-0.576563,58.327099,-34.361282,9.483354
459,579815920,-36.728111,-12.889315,104.806030,1.114872,0.569227,-0.481383,75.313293,-24.905930,6.312819
460,579832587,-35.399738,-13.043885,105.049515,0.795802,0.548067,-0.271056,83.272408,-18.565189,6.249576
461,579849254,-34.227459,-13.252384,105.288116,0.408724,0.333629,-0.682121,73.888161,-20.920238,4.512572
462,579865921,-33.244732,-13.592587,105.523743,0.407768,0.075307,-0.750899,62.541523,-27.297476,0.304854
463,579882588,-32.308872,-14.050679,105.694664,0.637080,0.311314,-0.552830,58.900002,-31.184462,-6.295957
464,579899255,-31.230186,-14.516419,105.695839,0.689586,0.545901,-0.632313,65.036194,-26.476967,-14.445760
465,579915922,-30.013395,-14.937097,105.563667,0.550274,0.262651,-1.237453,71.290909,-20.491926,-19.255997
466,579932589,-28.860025,-15.386526,105.459389,0.197053,0.058491,-1.578691,67.867920,-23.197151,-18.304020
467,579949256,-28.055544,-16.022219,105.475609,-0.100365,0.154852,-1.826329,48.836197,-36.660168,-17.145422
468,579965923,-27.553551,-16.911186,105.522049,-0.104399,0.784600,-1.710435,31.213047,-51.103531,-22.309914
469,579982590,-26.848982,-17.803308,105.350639,0.488027,2.133105,-1.056612,39.512196,-45.793911,-32.985825
470,579999257,-25.633169,-18.492388,104.849457,0.721075,2.326118,-0.907595,63.886051,-27.112465,-43.705765
471,580015924,-24.004946,-19.022976,104.091469,0.221773,1.920383,-1.302080,83.379555,-13.473823,-52.243942
472,580032591,-22.287451,-19.534172,103.266731,-0.594473,1.299448,-1.830069,87.024277,-12.488700,-54.803082
473,580049258,-20.712463,-20.150650,102.497368,-1.042570,0.852354,-1.905838,79.142250,-21.140799,-53.754147
474,580065925,-19.296732,-20.915247,101.768242,-0.832689,0.583811,-1.638899,69.910515,-31.727922,-53.978416
475,580082592,-17.895365,-21.772867,100.973412,-0.455942,0.728826,-1.403329,67.029869,-37.234234,-58.299564
476,580099259,-16.317413,-22.630985,100.017960,-0.508916,0.869766,-1.242611,73.318619,-36.220928,-65.663811
477,580115926,-14.476485,-23.435863,98.873245,-0.920896,0.901548,-0.928600,83.884819,-32.396713,-73.551544
478,580132593,-12.408030,-24.158899,97.546494,-1.324552,0.922936,-0.771219,92.286682,-27.874315,-80.713440
479,580149260,-10.212386,-24.814432,96.060059,-1.621245,1.162673,-1.096837,95.066475,-25.257540,-87.094292
480,580165927,-7.948522,-25.462532,94.428940,-1.553181,1.416098,-1.685781,94.547417,-27.014660,-93.414680
481,580182594,-5.518581,-26.170317,92.691994,-0.884365,1.505269,-1.608932,100.690887,-33.764965,-97.941147
482,580199261,-2.715735,-26.914179,90.848557,-0.880033,2.523336,-0.277372,119.021523,-39.995785,-101.690048
483,580215928,0.573152,-27.446106,88.917473,-1.377832,4.283138,1.446034,144.676117,-32.557995,-103.447777
484,580232595,4.226688,-27.543417,87.032471,-1.862600,5.099917,2.899437,167.257599,-12.596519,-99.804771
485,580249262,7.917279,-27.163351,85.418625,-2.275781,5.322267,3.391726,177.196030,11.032396,-87.755402
486,580265929,11.174766,-26.417421,84.285194,-2.698173,5.093644,3.064832,165.044159,31.540140,-67.119911
487,580282596,13.578176,-25.581249,83.710419,-3.065603,4.344331,2.563089,129.325211,39.846043,-40.867809
488,580299263,14.812413,-24.976299,83.691956,-3.542109,3.195956,2.442022,73.809921,32.438358,-9.721807
489,580315930,14.833103,-24.800676,84.241714,-3.828036,2.230716,2.690728,15.339976,15.346238,26.376341
490,580332597,13.831625,-25.046082,85.319427,-3.589853,2.105643,2.846854,-32.636158,-2.235859,60.608093
491,580349264,12.136550,-25.477327,86.833115,-3.163137,2.246647,2.503805,-62.752789,-9.235233,85.988419
492,580365931,10.125416,-25.926548,88.577499,-2.880154,2.058801,1.926741,-75.086235,-10.706545,97.879410
493,580382598,8.080698,-26.267662,90.433296,-2.721931,1.894786,1.393372,-73.518974,-6.844570,102.114395
494,580399265,6.177565,-26.448706,92.286270,-2.719855,1.511145,0.983818,-64.651855,-0.862756,100.336098
495,580415932,4.500414,-26.448170,94.058998,-2.816036,1.182872,0.819429,-53.086308,6.454664,94.953506
496,580432599,2.943048,-26.342039,95.720985,-3.158618,0.636317,0.771555,-48.949848,9.720958,88.863914
497,580449266,1.417950,-26.202187,97.264679,-3.257387,0.265623,0.659566,-50.355904,9.120775,82.818520
498,580465933,-0.113789,-26.058704,98.716049,-3.137130,0.188114,0.600203,-53.402355,7.079722,78.227211
499,580482600,-1.693910,-25.901127,100.083748,-2.914794,0.366471,0.638912,-58.716946,5.877269,74.056206
500,580499267,-3.354945,-25.690111,101.349480,-2.821919,0.662630,0.739322,-66.475609,7.231256,69.028549
501,580515934,-5.092642,-25.379412,102.511261,-2.782503,0.870150,0.652731,-74.080414,11.560633,64.266777
502,580532601,-6.883006,-24.935047,103.599022,-2.284014,1.101683,0.422094,-79.550659,17.963427,61.696293
503,580549268,-8.588284,-24.318256,104.601395,-1.433644,1.790792,0.320162,-77.130287,26.929399,59.327194
504,580565935,-10.174042,-23.519070,105.507858,-0.908182,2.786681,0.673281,-72.969421,36.833015,57.036381
505,580582602,-11.736325,-22.545773,106.345604,-1.070896,3.181547,0.801017,-73.941750,46.183041,56.689247
506,580599269,-13.330778,-21.430975,107.176270,-1.444897,2.839927,0.379459,-76.872742,52.919483,59.797180
507,580615936,-15.033279,-20.257002,108.046700,-1.313581,1.892953,-0.207866,-83.428825,54.000435,64.755844
508,580632603,-16.832150,-19.119665,108.912758,-0.526163,1.226235,-0.691795,-90.286148,49.868023,65.954742
509,580649270,-18.630611,-18.007618,109.689743,-0.038871,0.854881,-1.005458,-92.921234,47.781197,62.595856
510,580665937,-20.353960,-16.895397,110.336617,0.224092,0.884595,-1.259703,-91.611862,48.245834,57.353489
511,580682604,-21.959291,-15.746799,110.787979,0.134572,0.967580,-1.612720,-88.553154,52.585896,49.298855
512,580699271,-23.512135,-14.571996,111.015442,-0.206063,0.398436,-1.886559,-89.441254,57.623863,39.579468
513,580715938,-24.972115,-13.415702,111.031708,0.006162,-0.195313,-1.594452,-87.199417,60.575649,29.541712
514,580732605,-26.327034,-12.290567,110.865791,0.456849,-0.489989,-1.535814,-83.343964,62.757759,20.680202
515,580749272,-27.634798,-11.201445,110.545738,0.506312,-0.501538,-1.411593,-82.206131,64.463608,13.100057
516,580765939,-28.985718,-10.144689,110.098419,0.188074,-0.506463,-1.464604,-85.855171,66.026047,7.063156
517,580782606,-30.462770,-9.122145,109.544266,0.148090,0.008961,-1.283867,-94.014473,67.222519,2.179263
518,580799273,-32.048565,-8.134009,108.857933,0.631005,0.398085,-1.048404,-101.152336,69.500618,-3.820247
519,580815940,-33.682438,-7.189163,108.012741,1.368322,0.019227,-1.372010,-104.616188,72.580818,-11.214244
520,580832607,-35.321087,-6.328124,107.074150,1.975590,-0.042690,-1.471850,-104.768570,71.941620,-16.588667
521,580849274,-36.978447,-5.563004,106.086906,1.972998,-0.245619,-1.532055,-105.392952,69.505737,-20.251053
522,580865941,-38.613842,-4.888987,105.057777,1.439610,-0.082666,-0.971786,-103.560669,67.318024,-23.554966
523,580882608,-40.139782,-4.196887,103.893967,1.566814,0.541133,-0.776067,-96.897583,73.931328,-27.206808
524,580899275,-41.480034,-3.422825,102.532211,2.051303,0.093620,-1.074670,-85.650108,86.103592,-31.095339
525,580915942,-42.790646,-2.662237,101.056808,2.353663,-0.770456,-1.955830,-83.138290,90.814491,-34.680199
526,580932609,-44.141602,-1.983896,99.492615,3.055308,-1.082804,-2.993129,-84.660561,91.701515,-39.793774
527,580949276,-45.344627,-1.351682,97.770576,3.814986,-0.569626,-2.786047,-74.982491,97.285141,-46.384815
528,580965943,-46.142616,-0.677453,95.848923,2.927941,0.636343,-0.798517,-49.708893,108.433151,-51.209156
529,580982610,-46.662354,0.023653,93.717461,1.069880,0.291884,-0.122167,-31.698397,119.251442,-57.450676
530,580999277,-46.971718,0.739103,91.516052,0.308100,-0.633623,-0.334450,-17.469912,123.315186,-58.816063
531,581015944,-47.383976,1.324577,89.429848,0.223214,-1.420340,-0.785583,-22.273880,113.291946,-59.027840
532,581032611,-48.099770,1.582403,87.527092,0.882250,-1.893467,-1.009600,-39.845009,92.495361,-65.031326
533,581049278,-49.107586,1.396526,85.780090,1.449070,-2.015013,-0.669546,-57.541447,68.836128,-77.379112
534,581065945,-50.203407,0.844387,84.142952,1.286791,-1.765601,0.526533,-63.625759,51.007370,-88.551987
535,581082612,-51.217781,0.141568,82.590248,1.330456,-1.734235,1.566531,-59.859657,42.992767,-91.355392
536,581099279,-52.118809,-0.598107,81.172745,1.571994,-1.949025,2.536497,-54.200081,36.771637,-87.283012
537,581115946,-52.984638,-1.382033,79.965683,1.374009,-2.457086,2.894366,-53.000511,26.459826,-81.098557
538,581132613,-53.810772,-2.216941,79.011017,1.043321,-2.895824,3.146187,-51.163979,13.653888,-74.079231
539,581149280,-54.464607,-3.042789,78.216362,1.230584,-2.681924,3.732034,-41.215908,7.117679,-67.786171
540,581165947,-54.803551,-3.768597,77.446869,1.259744,-2.573310,3.920187,-22.873726,9.909919,-61.917564
541,581182614,-54.864094,-4.332689,76.724106,0.605846,-2.793394,3.618175,-6.487175,13.392694,-52.318562
542,581199281,-54.809227,-4.744265,76.159851,-0.192309,-2.910068,3.337717,0.823344,10.875030,-39.360863
543,581215948,-54.679764,-4.998767,75.770447,-0.730110,-3.007445,2.972795,5.994572,7.697539,-25.654720
544,581232615,-54.435650,-5.070542,75.504166,-0.475562,-3.011357,2.461216,13.452495,7.958243,-12.487707
545,581249282,-54.103130,-4.976952,75.309608,0.161679,-3.099401,2.169054,19.137131,10.198757,-1.990405
546,581265949,-53.761837,-4.763750,75.205101,0.274529,-2.961664,2.029509,20.156382,10.049924,6.899223
547,581282616,-53.452248,-4.459261,75.190125,0.301450,-2.690313,2.000384,18.717384,9.019678,14.403046
548,581299283,-53.132053,-4.042303,75.250450,0.425425,-2.521648,1.749040,19.696880,9.505680,22.444105
549,581315950,-52.762920,-3.518596,75.384468,0.509340,-2.571026,1.353790,22.897100,9.971378,30.136391
550,581332617,-52.376099,-2.975685,75.592644,0.516900,-2.710735,1.109035,24.139408,7.328819,33.668289
551,581349284,-52.027874,-2.500158,75.884453,0.410481,-2.433330,1.170879,21.956680,1.083468,33.482277
552,581365951,-51.745968,-2.079630,76.238640,0.462428,-2.126040,0.926759,17.992022,-3.727090,33.172131
553,581382618,-51.505325,-1.578831,76.673386,0.594489,-1.895016,0.562592,15.501861,-4.382528,39.953014
554,581399285,-51.369061,-0.948519,77.215202,0.748318,-1.786631,0.424448,9.125062,-4.444458,50.041901
555,581415952,-51.378738,-0.274011,77.882378,0.594649,-1.891372,0.663224,0.083415,-8.620772,56.809059
556,581432619,-51.394428,0.378998,78.613647,0.397681,-1.493394,1.382655,-0.745057,-12.454178,58.204727
557,581449286,-51.170036,1.050009,79.273331,0.465100,-1.047407,1.841747,13.207827,-8.320423,56.368355
558,581465953,-50.628738,1.786020,79.832489,0.430577,-0.996581,1.634897,31.887035,-0.805403,55.627060
559,581482620,-49.907169,2.555504,80.380234,0.248208,-1.405773,0.722096,42.286110,1.621191,56.704006
560,581499287,-49.185547,3.262174,81.009041,0.392503,-1.843002,0.127322,41.621029,-3.800275,56.911980
561,581515954,-48.508583,3.838379,81.734512,0.604633,-2.043600,0.019650,38.160164,-12.609669,54.821533
562,581532621,-47.804760,4.270843,82.529739,0.908364,-1.681391,0.327460,39.094257,-20.801512,51.281261
563,581549288,-47.023571,4.554735,83.365379,1.298207,-0.660684,1.117290,43.254482,-27.940201,46.567486
564,581565955,-46.126434,4.715313,84.201035,1.436548,-0.297394,1.293139,50.018635,-32.338146,41.553917
565,581582622,-45.048233,4.831161,85.057938,1.455545,-0.407210,0.739304,60.658310,-34.405693,41.025902
566,581599289,-43.844299,4.964917,85.941696,1.562763,-0.817691,-0.110063,67.957436,-33.939384,43.543705
567,581615956,-42.560513,5.152534,86.903412,1.470054,-1.050850,-0.655277,72.190239,-33.822090,49.814880
568,581632623,-41.355579,5.328899,87.985138,1.322091,-0.970486,-0.483800,66.619484,-38.028744,55.350258
569,581649290,-40.291599,5.426085,89.171616,1.558566,-0.552964,-0.311508,57.423504,-44.607601,57.653362
570,581665957,-39.211536,5.440987,90.440247,1.690240,-0.297236,0.108454,57.852242,-50.459339,59.042995
571,581682624,-37.893486,5.433017,91.763168,1.656933,-0.178606,0.764670,71.821129,-52.312538,61.713142
572,581699291,-36.300941,5.401344,93.092918,1.442380,-0.074886,1.262874,88.281067,-52.123245,62.433128
573,581715958,-34.592793,5.306142,94.344788,1.440338,-0.081146,0.761829,95.743660,-50.725513,57.838699
574,581732625,-32.900433,5.102078,95.481323,1.818969,-0.162018,0.060213,95.621529,-50.610332,49.899025
575,581749292,-31.286077,4.731949,96.451561,2.109809,-0.325274,-0.504449,92.142006,-52.333519,37.571613
576,581765959,-29.709589,4.206112,97.242325,1.995797,-0.840350,-1.050294,91.169563,-53.899200,24.981777
577,581782626,-28.073488,3.608362,97.953148,1.805529,-0.752994,-1.376404,95.540428,-54.674164,20.169067
578,581799293,-26.380688,2.975344,98.674850,1.519805,0.042379,-1.071605,99.366203,-56.272560,21.313322
579,581815960,-24.778057,2.211691,99.307640,1.059388,-0.017341,-0.727318,94.729462,-60.426235,14.683177
580,581832627,-23.248676,1.266980,99.714912,1.065868,-0.154435,-0.881837,91.313049,-64.438492,-0.500533
581,581849294,-21.695681,0.197626,99.804054,1.062603,-0.191972,-1.531406,93.407806,-64.055367,-19.323900
582,581865961,-19.941216,-0.857375,99.608337,1.187495,-0.406113,-2.328588,105.500206,-57.716499,-33.209812
583,581882628,-17.989346,-1.878243,99.245056,0.952121,-0.429607,-2.755878,116.897034,-53.564949,-40.252922
584,581899295,-16.039049,-2.980136,98.791214,0.328000,-0.920615,-2.931558,116.172615,-57.980213,-45.090122
585,581915962,-14.324739,-4.347255,98.312881,-0.222919,-0.573305,-2.672613,101.335594,-74.383141,-48.852581
586,581932629,-12.933883,-6.019314,97.729141,-0.263562,0.644866,-2.333363,80.599655,-91.998329,-57.255142
587,581949296,-11.680512,-7.820799,96.937553,-0.134682,1.895334,-2.350299,69.794243,-98.262817,-68.830589
588,581965963,-10.378464,-9.574618,95.937958,0.296715,2.319467,-2.512215,69.372086,-94.641335,-78.048164
589,581982630,-8.884259,-11.259292,94.786484,0.559520,1.921101,-2.198404,77.484764,-90.974022,-83.622292
590,581999297,-7.184657,-12.915661,93.562988,0.119899,1.961344,-1.781800,86.931099,-91.048782,-84.700928
591,582015964,-5.357805,-14.500072,92.349510,-0.373147,2.044834,-1.121405,92.689362,-89.432655,-80.433357
592,582032631,-3.410120,-15.933991,91.150887,-0.742895,1.464316,-0.998975,98.317558,-83.132256,-75.514908
593,582049298,-1.313730,-17.250940,89.898796,-0.895612,1.624607,-1.492761,104.663940,-78.627502,-74.937492
594,582065965,1.090017,-18.396200,88.434883,-1.398678,2.907857,-1.210609,117.669014,-71.186447,-83.502289
595,582082632,3.768607,-19.188341,86.747047,-2.416693,3.327610,-0.050364,128.417664,-54.170029,-93.516388
596,582099299,6.511748,-19.631187,84.904625,-3.525702,2.599491,0.624510,128.166336,-38.410583,-101.222466
597,582115966,9.094275,-19.902922,82.918617,-4.645713,2.192109,1.002254,114.952538,-33.971714,-108.657433
598,582132633,11.317110,-20.101322,80.848305,-5.204854,2.530065,1.396604,91.164658,-34.981777,-112.542809
599,582149300,13.105507,-20.249128,78.791847,-4.173709,3.855019,2.107928,65.016884,-35.738045,-111.095192
600,582165967,14.352087,-20.244339,76.892548,-3.492973,4.875075,2.386487,35.610676,-27.659044,-103.714462
601,582182634,14.921419,-20.161547,75.453972,-4.388985,3.612543,1.666487,4.591408,-18.210966,-79.426163
602,582199301,14.738910,-20.296328,74.671280,-4.267072,2.991960,1.071830,-26.966137,-21.636860,-40.331474
603,582215968,14.026899,-20.702648,74.623222,-2.036587,3.174639,1.369822,-43.527431,-26.818089,3.625262
604,582232635,12.976462,-21.147776,75.217278,0.424990,4.457351,2.969972,-50.101742,-20.720268,38.796375
605,582249302,11.975736,-21.296007,76.197014,0.061431,4.969160,2.809725,-38.573647,0.642902,55.596554
606,582265969,11.308240,-21.073101,77.405373,-1.527101,4.233466,1.654236,-13.663935,24.245098,63.667862
607,582282636,10.915822,-20.736179,78.675850,-2.500906,2.636312,1.132177,3.833263,31.077177,66.131828
608,582299303,10.672165,-20.550745,79.881485,-2.658694,1.756348,1.331107,11.054005,21.131605,64.556068
609,582315970,10.560948,-20.474483,81.003204,-2.197521,2.198659,1.544985,17.073788,13.642891,61.253124
610,582332637,10.530928,-20.366705,82.140099,-1.960375,2.586783,2.018537,22.153532,15.595756,61.796097
611,582349304,10.378616,-20.203751,83.400909,-2.275512,2.709216,2.424397,17.236868,20.037027,68.129883
612,582365971,9.934938,-20.012182,84.805061,-2.621418,2.356214,2.368323,2.486632,22.820520,75.968338
613,582382638,9.138768,-19.814438,86.309456,-2.716727,1.853479,2.049868,-16.887913,23.326471,81.843254
614,582399305,8.055508,-19.588593,87.865791,-2.509529,1.821114,1.762989,-33.382439,24.113060,85.005600
615,582415972,6.797418,-19.256107,89.439247,-2.404178,2.131406,1.477671,-43.962051,28.872852,85.816132
616,582432639,5.390947,-18.804495,91.020699,-2.506267,1.856229,1.074241,-53.321903,34.060181,86.422623
617,582449306,3.873368,-18.284754,92.552109,-2.496112,1.344405,0.497505,-61.707237,35.722527,84.410072
618,582465973,2.267807,-17.785017,94.003250,-2.010123,0.679002,0.118098,-69.255623,31.991537,81.167336
619,582482640,0.553743,-17.369673,95.373932,-1.632333,0.696021,-0.210562,-77.890564,24.467121,77.864502
620,582499307,-1.261781,-17.009264,96.716766,-1.643529,0.864257,-0.467422,-84.996880,18.780979,77.213188
621,582515974,-3.142211,-16.657883,98.026550,-1.683402,1.122896,-0.595133,-89.945404,15.818527,76.088509
622,582532641,-5.012053,-16.239195,99.256195,-1.221996,1.342623,-0.830304,-91.177788,17.677809,72.485909
623,582549308,-6.800367,-15.738379,100.358604,-0.338039,1.074899,-1.026727,-88.957138,21.007923,66.454697
624,582565975,-8.497876,-15.240464,101.337944,-0.024208,0.863791,-1.100444,-86.032951,19.742081,60.213001
625,582582642,-10.100902,-14.731775,102.263451,-0.239975,1.139781,-0.972538,-81.693192,19.128220,57.989094
626,582599309,-11.661801,-14.152844,103.176964,-0.778885,1.321877,-0.810528,-79.847153,21.774422,58.809563
627,582615976,-13.264252,-13.502038,104.063667,-1.012396,0.960629,-0.912127,-83.292877,24.671734,59.000820
628,582632643,-14.912117,-12.817314,104.866531,-0.238809,0.019431,-1.157425,-87.761551,26.128628,55.627964
629,582649310,-16.538996,-12.190035,105.518440,0.477928,-0.424685,-1.368077,-88.997314,23.582659,47.094685
630,582665977,-18.063368,-11.595440,105.971313,0.595112,0.142889,-1.283854,-85.710304,23.854836,36.147945
631,582682644,-19.509375,-10.954860,106.249687,-0.096271,0.353404,-0.771615,-83.334625,28.812149,28.044426
632,582699311,-21.055784,-10.237534,106.396400,-0.683365,0.396059,-0.942588,-91.006493,35.077816,23.195511
633,582715978,-22.791279,-9.464089,106.454750,-0.053400,-0.393868,-1.549765,-103.369110,39.470760,20.697439
634,582732645,-24.814760,-8.768840,106.481117,1.054957,-0.661526,-2.418811,-120.994698,35.244122,18.445444
635,582749312,-27.073757,-8.206150,106.449753,1.805962,-0.384086,-2.409335,-135.648575,28.878382,13.285543
636,582765979,-29.322733,-7.742587,106.315544,1.402614,0.061051,-0.805013,-135.880768,25.981760,6.310211
637,582782646,-31.353458,-7.202917,106.003456,1.122888,0.916248,0.128689,-124.099594,35.024517,0.538173
638,582799313,-33.059982,-6.455024,105.454498,1.511257,1.022372,-0.161155,-106.121391,53.101582,-3.538608
639,582815980,-34.607727,-5.573921,104.779190,1.362490,0.036110,-0.803915,-96.918556,64.049889,-3.812951
640,582832647,-36.218590,-4.739486,104.120850,0.939663,-0.698296,-0.636768,-100.004539,61.294903,-2.817367
641,582849314,-37.902672,-3.996861,103.481255,0.501893,-0.357868,-0.113984,-103.770180,56.310253,-3.444539
642,582865981,-39.488102,-3.235219,102.717636,0.557543,0.454433,0.593259,-97.815269,61.939270,-6.875160
643,582882648,-40.879776,-2.409903,101.729195,0.785253,0.486919,0.733965,-86.219978,73.735634,-13.049474
644,582899315,-42.153095,-1.559622,100.561966,0.759457,-0.205698,0.201869,-78.620049,82.278496,-18.338270
645,582915982,-43.429665,-0.749590,99.353279,0.601613,-1.167153,-0.120566,-77.852386,82.596550,-19.923157
646,582932649,-44.738976,0.001006,98.187645,0.535572,-1.071409,-0.103786,-78.814774,78.677254,-18.639685
647,582949316,-46.019440,0.737758,97.005928,0.620104,-0.228847,0.470999,-76.169571,79.187866,-18.073008
648,582965983,-47.275333,1.445821,95.730614,0.550410,0.180101,0.891691,-73.696159,82.458023,-21.353804
649,582982650,-48.507843,2.079281,94.384193,0.439191,-0.281417,0.474109,-71.267326,83.049736,-25.676224
650,582999317,-49.841877,2.572417,93.070129,0.236636,-1.270306,-0.313810,-76.644119,76.614120,-28.832764
651,583015984,-51.340160,2.856323,91.881210,0.489077,-1.901628,-0.921277,-86.325119,63.517223,-31.792677
652,583032651,-52.886959,2.919656,90.790451,1.247593,-1.440514,-0.668588,-89.320297,51.553547,-36.851021
653,583049318,-54.303665,2.845523,89.674789,1.817771,-0.886744,-0.167477,-81.445869,48.793877,-42.969982
654,583065985,-55.493217,2.710968,88.534508,1.956260,-0.763159,0.043191,-67.864670,48.887611,-45.613110
655,583082652,-56.570820,2.529178,87.483177,1.846994,-0.776745,0.086668,-61.579510,43.769657,-43.958275
656,583099319,-57.688175,2.254551,86.644638,1.241898,-1.001594,0.233818,-64.743523,30.880478,-40.829670
657,583115986,-58.829361,1.890993,86.014236,0.762237,-0.909634,0.446295,-66.905113,18.268013,-38.142544
658,583132653,-59.762402,1.531999,85.392059,1.440167,-0.698428,0.901907,-54.667858,18.675791,-37.276291
659,583149320,-60.328987,1.246311,84.605301,2.038195,-0.860742,1.121229,-32.652046,29.909979,-38.117634
660,583165987,-60.641270,1.001777,83.714539,1.719371,-1.695297,0.766038,-17.483973,36.843426,-38.792763
661,583182654,-61.021908,0.705011,82.970123,0.581840,-2.691098,0.374819,-21.965847,27.876909,-37.013485
662,583199321,-61.663597,0.344271,82.539932,-0.213972,-3.354937,0.371088,-38.056492,9.820975,-31.076572
663,583215988,-62.374748,-0.022606,82.296028,0.490925,-3.322440,1.128429,-42.421059,0.133066,-26.020348
664,583232655,-62.754623,-0.311028,81.923668,1.050215,-3.484826,2.045030,-22.651316,9.383618,-25.373085
665,583249322,-62.629620,-0.511052,81.391144,0.606125,-4.393552,2.512693,7.477726,20.393185,-25.049713
666,583265989,-62.188042,-0.684873,80.907623,0.157569,-4.274684,3.212799,26.401758,18.374285,-22.415512
667,583282656,-61.662838,-0.830642,80.603081,0.223002,-4.095827,3.806818,31.482254,9.490541,-16.064512
668,583299323,-61.041454,-0.856580,80.512672,0.739015,-3.732623,4.057152,37.414009,1.484347,-3.725271
669,583315990,-60.214859,-0.655239,80.570671,1.449597,-3.136483,4.182961,49.856754,0.346293,12.469973
670,583332657,-59.258053,-0.229174,80.779411,1.326250,-2.976214,3.663644,57.725700,-0.495472,28.620157
671,583349324,-58.329693,0.343866,81.197029,0.998967,-3.149023,2.705347,55.900372,-6.184423,42.611248
672,583365991,-57.486889,0.980013,81.830315,0.813553,-3.214162,2.018030,50.357574,-14.492690,52.739719
673,583382658,-56.608131,1.616232,82.575111,0.897731,-2.533608,1.957582,51.944305,-19.314270,56.542694
674,583399325,-55.539707,2.261144,83.264244,0.998868,-2.104237,1.637433,62.938835,-15.298409,55.382332
675,583415992,-54.262814,2.933948,83.868767,0.939767,-1.925179,1.063074,75.204468,-9.037190,54.061409
676,583432659,-52.953667,3.616904,84.465958,0.712694,-1.994259,0.228126,76.736893,-7.107991,54.419300
677,583449326,-51.806549,4.250486,85.168465,0.524725,-2.263543,-0.522326,66.173286,-12.732416,55.984833
678,583465993,-50.893673,4.784076,86.023857,0.718676,-2.270096,-0.711159,50.967491,-22.606585,57.163868
679,583482660,-50.140038,5.152955,86.970749,0.934172,-1.819381,-0.407405,40.534977,-32.257542,53.272102
680,583499327,-49.392536,5.332372,87.887955,1.154993,-0.948159,0.144300,40.062073,-37.538059,43.816227
681,583515994,-48.492512,5.386019,88.655106,1.167881,-0.454015,0.237235,49.943016,-35.110275,32.730442
682,583532661,-47.400528,5.447650,89.344383,1.293734,-0.607841,-0.394287,61.858223,-30.763084,30.526234
683,583549328,-46.190639,5.567646,90.089813,1.532657,-0.704416,-0.757019,68.545158,-30.196110,35.935543
684,583565995,-45.068455,5.621243,90.964973,1.403193,-0.904427,-0.934887,62.461792,-37.782040,39.051796
685,583582662,-44.117798,5.475844,91.939240,1.308649,-0.745905,-0.654250,51.638435,-49.742508,35.516155
686,583599329,-43.166267,5.135466,92.865341,1.440429,-0.014975,-0.124071,52.207592,-55.650894,26.156960
687,583615996,-42.116787,4.668796,93.634003,1.403780,0.389648,0.045674,59.285393,-54.413975,15.048986
688,583632663,-40.897568,4.211096,94.313026,1.313213,0.433463,-0.288966,70.261208,-50.171051,12.434358
689,583649330,-39.561752,3.807095,95.026321,1.250002,0.157016,-0.471330,77.423355,-48.765869,17.156965
690,583665997,-38.241314,3.341055,95.799736,0.983698,-0.243215,-0.473428,76.601318,-53.538197,18.707378
691,583682664,-36.997852,2.731309,96.574242,0.852143,-0.439949,-0.427600,72.417160,-59.998840,14.656536
692,583699331,-35.781960,1.945248,97.286057,0.885899,0.180596,-0.090370,71.483765,-65.978996,6.599058
693,583715998,-34.517788,1.059440,97.828827,0.947517,0.881132,-0.250934,75.272690,-64.896523,-3.748844
694,583732665,-33.097866,0.175061,98.170227,0.958144,0.376658,-0.884904,85.254799,-58.178055,-12.273253
695,583749332,-31.426031,-0.651746,98.362083,0.963853,-0.270598,-1.590633,100.641075,-50.789913,-16.509687
696,583765999,-29.668890,-1.502256,98.510597,0.662761,-0.414405,-1.471227,105.883270,-51.172527,-18.017666
697,583782666,-28.267488,-2.606476,98.715836,-0.069672,-0.643328,-1.131380,84.814667,-66.621521,-21.075768
698,583799333,-27.207201,-4.013337,98.910660,-0.273566,-0.161939,-1.172959,64.581528,-82.840363,-28.712521
699,583816000,-26.160311,-5.519984,98.954460,0.363311,0.659909,-1.279618,63.321522,-84.642242,-38.005169
700,583832667,-24.767191,-6.909070,98.708076,0.769069,1.140967,-1.656680,82.278130,-71.620056,-48.857124
701,583849334,-22.930714,-8.095454,98.197357,0.695594,1.023584,-2.064168,106.485039,-55.507778,-56.319778
702,583866001,-20.924768,-9.204492,97.630600,-0.038471,0.833925,-1.980875,115.544601,-51.854382,-55.780563
703,583882668,-19.123781,-10.459094,97.136871,-0.959274,0.678881,-1.548841,103.304970,-63.406292,-52.947235
704,583899335,-17.630430,-11.975634,96.654831,-1.192284,1.068899,-1.154015,84.276550,-80.074593,-55.356995
705,583916002,-16.214193,-13.607759,96.059921,-0.591405,1.559041,-0.882113,77.368988,-86.213745,-61.558582
706,583932669,-14.528856,-15.143022,95.214218,-0.030590,2.191393,-1.142020,88.819191,-78.439491,-71.568352
707,583949336,-12.483175,-16.479790,94.123817,-0.111876,1.801719,-1.586373,105.215950,-65.925316,-79.687325
708,583966003,-10.073169,-17.692459,92.871582,-0.168873,1.028582,-1.816987,122.825897,-59.939919,-84.412193
709,583982670,-7.420148,-18.908405,91.510635,-0.487819,1.352052,-1.566526,133.837448,-62.940147,-87.479652
710,583999337,-4.518252,-20.063841,89.989700,-0.644913,2.165251,-0.990602,143.966812,-62.616814,-92.535339
711,584016004,-1.216364,-20.961609,88.235863,-0.918785,2.280850,-0.579746,161.529205,-51.469940,-100.896515
712,584032671,2.414875,-21.428411,86.242554,-2.436792,1.976053,-0.580173,174.920273,-31.763374,-110.983543
713,584049338,6.026664,-21.616863,84.042030,-4.680861,1.006425,-1.645328,168.540771,-22.898245,-121.440231
714,584066005,9.468178,-21.862482,81.569702,-5.113993,0.810881,-0.080705,151.796555,-35.751179,-134.319962
715,584082672,12.581664,-22.163404,78.799431,-3.686849,3.426612,2.755612,124.744293,-49.755322,-147.559067
716,584099339,15.419565,-22.086241,76.066025,-1.717641,5.617857,4.146571,108.713608,-34.827774,-148.327301
717,584116006,17.756952,-21.597874,73.912148,-0.921276,5.738159,3.569542,92.372421,-8.711198,-123.128494
718,584132673,19.164156,-21.035391,72.612587,-1.405459,5.058612,2.281858,56.296570,6.476753,-79.406937
719,584149340,19.309179,-20.883661,72.221992,-3.193024,2.801467,1.589774,0.521047,-1.132263,-23.486368
720,584166007,18.210882,-21.556520,72.643074,-3.555199,0.972682,2.244000,-56.564362,-33.162804,35.452133
721,584182674,16.214993,-22.781601,73.646545,-2.120782,2.384417,2.722587,-96.854156,-56.217983,75.178993
722,584199341,14.079070,-23.899860,74.953766,-0.354733,3.393090,2.408067,-96.909134,-48.444656,87.211098
723,584216008,12.419374,-24.461946,76.353226,0.156762,3.473704,1.424883,-65.023582,-17.756187,82.444916
724,584232675,11.403319,-24.454187,77.664436,-1.338334,2.255559,0.468687,-28.231121,12.762605,70.120598
725,584249342,10.806728,-24.208414,78.837326,-2.225377,1.119689,0.334770,-6.648478,24.354155,60.224957
726,584266009,10.384248,-24.024853,79.912811,-1.975298,0.869134,0.703497,1.163811,19.193401,56.014339
727,584282676,10.046707,-23.920181,80.972389,-1.522926,1.332301,1.093520,5.716688,14.024803,56.192822
728,584299343,9.733422,-23.798563,82.113571,-1.934569,1.752061,1.319489,9.033775,15.490789,60.572113
729,584316010,9.272547,-23.632704,83.412102,-2.761116,1.719641,1.395767,3.813358,19.145115,68.840637
730,584332677,8.419751,-23.498718,84.880432,-3.447304,1.391414,1.387908,-15.822608,17.922586,78.682869
731,584349344,7.055921,-23.478395,86.449356,-3.255347,0.716546,1.340223,-44.194355,10.401129,85.507355
732,584366011,5.240761,-23.593187,88.053658,-2.676825,0.909414,1.338042,-70.362328,0.182057,88.603760
733,584382678,3.237596,-23.653503,89.622421,-2.164136,1.977260,1.462009,-82.369461,0.351174,86.390228
734,584399345,1.209085,-23.498039,91.141701,-2.217514,2.333886,1.344402,-85.153938,10.159654,83.241982
735,584416012,-0.877907,-23.128288,92.616180,-2.698759,2.191283,0.878598,-90.113152,20.031418,81.306282
736,584432679,-3.075354,-22.674593,94.060486,-2.075165,1.036041,0.401801,-98.037239,22.079000,80.838730
737,584449346,-5.340349,-22.304249,95.448830,-1.204518,0.428819,0.021453,-103.945938,14.151175,78.520042
738,584466013,-7.250471,-21.833855,96.715172,-0.234445,2.085120,0.170493,-85.969551,17.976671,73.222549
739,584482680,-8.683421,-20.962313,97.832497,-0.204163,3.150391,0.274297,-61.428596,40.791672,69.188843
740,584499347,-9.867890,-19.802044,98.817604,-1.265797,2.137666,-0.016947,-50.382294,57.444836,66.038651
741,584516014,-11.179225,-18.706823,99.770447,-1.724493,0.691367,-0.622739,-59.727219,52.434437,65.189034
742,584532681,-12.761135,-17.852253,100.724510,-1.286181,0.339864,-1.084843,-76.857491,36.577164,63.934814
743,584549348,-14.461239,-17.132700,101.616455,-0.572905,0.868762,-1.417467,-85.813889,27.646322,59.909481
744,584566015,-16.153399,-16.393755,102.360184,-0.749464,1.433696,-1.928691,-88.552788,29.190535,53.061066
745,584582682,-17.992300,-15.657830,102.949501,-1.477795,1.258133,-3.167271,-100.464920,29.950251,45.591118
746,584599349,-20.209761,-15.101693,103.430313,-1.629123,0.859217,-3.542722,-125.287292,20.154638,37.354767
747,584616016,-22.709139,-14.776404,103.871841,-1.441748,0.296604,-2.443762,-143.024017,6.533301,31.131805
748,584632683,-25.205729,-14.514847,104.266968,-0.125555,0.694632,-2.131979,-143.693710,2.765541,27.513821
749,584649350,-27.417168,-14.174076,104.457817,1.034814,1.035973,-1.871305,-129.742081,11.156043,19.193645
750,584666017,-29.332176,-13.768923,104.437447,0.789808,0.891418,-1.354836,-115.080673,19.698828,10.701573
751,584682684,-31.126617,-13.347711,104.245186,-0.098525,1.065201,-0.679955,-110.250771,25.232931,3.241325
752,584699351,-32.987171,-12.952265,103.902267,-0.029609,0.746536,-0.757927,-116.193008,28.496075,-4.175914
753,584716018,-35.003197,-12.663891,103.475555,0.839608,0.568620,-1.016070,-126.514336,26.056656,-10.796916
754,584732685,-37.105537,-12.461398,102.962967,1.881428,1.153841,-0.930018,-132.706680,25.243366,-16.880795
755,584749352,-39.212238,-12.317882,102.384178,2.122532,1.008673,-0.384817,-133.722763,25.483345,-21.105032
756,584766019,-41.313053,-12.300843,101.757607,1.375327,0.678392,0.635098,-133.924973,22.267029,-27.106869
757,584782686,-43.249855,-12.349159,101.037598,1.553874,0.547920,1.033525,-125.289330,23.994093,-32.900539
758,584799353,-44.872860,-12.418268,100.214394,2.611112,-0.038988,0.771728,-107.829086,28.307154,-37.267933
759,584816020,-46.200665,-12.545419,99.382828,3.321229,-0.346076,0.621861,-90.302391,27.153769,-39.277542
760,584832687,-47.384060,-12.779944,98.667046,2.619601,-0.916241,0.845879,-80.260773,18.629894,-38.647541
761,584849354,-48.359386,-13.082004,98.133575,0.623359,-1.314577,2.080223,-65.521370,8.691410,-34.069229
762,584866021,-48.967163,-13.291333,97.587807,0.318186,-1.058485,2.827492,-43.776344,13.343955,-30.188536
763,584882688,-49.124584,-13.313414,96.879684,0.735387,-1.338862,2.360260,-19.061125,28.050919,-27.799793
764,584899355,-49.075005,-13.190346,96.068115,0.660040,-2.029837,1.093204,-8.029770,38.343575,-25.146652
765,584916022,-49.195374,-13.049814,95.289680,0.670064,-2.351728,0.134510,-17.665770,37.594200,-23.085678
766,584932689,-49.616947,-12.954093,94.573036,0.618486,-2.210402,0.275939,-34.810440,33.209534,-22.604023
767,584949356,-50.226898,-12.832972,93.832954,1.119869,-1.587430,1.102195,-46.349350,35.457512,-22.018158
768,584966023,-50.781002,-12.585466,92.954269,1.463831,-1.354456,1.994100,-44.684479,46.770035,-20.959303
769,584982690,-51.278690,-12.237016,91.953842,1.338988,-1.895339,1.614912,-42.600231,56.361126,-20.321115
770,584999357,-51.770580,-11.818602,90.922997,1.115243,-2.430489,0.722465,-42.237309,60.597717,-17.690588
771,585016024,-52.300568,-11.358803,89.889992,0.890972,-2.575640,0.279256,-44.082767,62.450409,-15.314724
772,585032691,-52.787182,-10.846830,88.777611,0.719342,-2.319375,0.451107,-41.880974,68.268005,-15.158028
773,585049358,-53.219475,-10.328909,87.522514,0.168751,-2.535404,0.366526,-39.603653,75.403694,-19.441408
774,585066025,-53.638275,-9.916730,86.169220,-0.631951,-2.565829,0.057073,-39.232033,76.507462,-27.486982
775,585082692,-54.088871,-9.612822,84.781647,-0.523678,-2.143020,-0.344652,-40.991398,74.580505,-33.383499
776,585099359,-54.533890,-9.310833,83.387848,0.184208,-1.865173,-0.656786,-40.288204,75.126801,-33.139374
777,585116026,-54.899227,-8.940566,82.052986,0.432370,-1.813756,-0.170984,-34.464241,74.930908,-27.280315
778,585132693,-55.208210,-8.593988,80.849922,0.276581,-1.983251,0.609852,-29.382719,67.927475,-23.558573
779,585149360,-55.386101,-8.333150,79.826302,0.329775,-1.971194,1.277349,-19.552809,56.378857,-21.460558
780,585166027,-55.310223,-8.138409,78.956902,0.683804,-1.811883,1.528741,-2.759345,46.631561,-19.485472
781,585182694,-54.978970,-7.970201,78.236839,0.918915,-1.767984,1.203021,13.985876,38.384781,-15.914557
782,585199361,-54.522453,-7.813904,77.700256,1.294181,-1.692794,0.931176,23.137463,28.964048,-10.502234
783,585216028,-54.100449,-7.695886,77.400795,1.331785,-1.741879,0.841787,23.067804,16.091988,-4.394038
784,585232695,-53.800758,-7.638633,77.352936,1.403575,-1.671536,1.044102,17.777521,1.810814,1.346263
785,585249362,-53.561565,-7.630061,77.505371,1.540271,-1.704789,1.251127,15.752605,-9.516539,6.022418
786,585266029,-53.285702,-7.653641,77.785591,1.724684,-1.748162,1.343560,18.981432,-16.751644,9.030683
787,585282696,-52.883945,-7.686298,78.129959,1.870988,-1.906943,1.156583,27.063721,-20.085493,10.971959
788,585299363,-52.336754,-7.692269,78.535568,1.689092,-2.076588,0.726162,36.295006,-21.920246,14.591101
789,585316030,-51.699615,-7.642695,79.026230,1.406792,-2.159582,0.541303,42.373199,-23.715914,20.531487
790,585332697,-51.072605,-7.553582,79.624603,1.035985,-2.086636,0.745836,42.589520,-27.030296,26.614811
791,585349364,-50.506073,-7.437680,80.308708,0.910572,-2.167692,0.913941,39.573215,-29.704565,31.340662
792,585366031,-49.983482,-7.324125,81.057854,0.998172,-2.130223,0.963935,37.360992,-32.487896,33.967934
793,585382698,-49.481091,-7.245399,81.885170,0.992661,-2.122788,0.929532,36.673477,-37.099480,35.649002
794,585399365,-48.966393,-7.186970,82.823883,0.757899,-2.087868,0.784631,38.195385,-42.619938,39.366058
795,585416032,-48.312649,-7.085496,83.861305,0.640043,-1.844044,1.058467,47.199215,-44.936062,45.600204
796,585432699,-47.431698,-6.881783,84.927017,0.546181,-1.373672,1.501303,60.874020,-41.487637,51.853069
797,585449366,-46.347580,-6.580171,85.956123,0.339531,-1.201980,1.782815,72.527153,-35.022648,55.335609
798,585466033,-45.170963,-6.245598,86.936592,0.125347,-1.303060,1.760476,77.410583,-30.499435,55.381325
799,585482700,-44.008656,-5.917945,87.892471,-0.081248,-1.632292,1.359511,76.058510,-28.664713,54.629383
800,585499367,-42.913994,-5.589994,88.876251,-0.202286,-1.760279,0.727628,71.838654,-28.751760,56.374451
801,585516034,-41.905178,-5.242337,89.918770,0.107953,-1.273214,0.572721,66.671707,-29.237543,60.256454
802,585532701,-40.957180,-4.865112,90.978821,0.474978,-0.738163,0.751442,62.719299,-27.600388,62.687656
803,585549368,-40.001507,-4.459980,92.004562,0.681260,-0.720779,0.648786,62.579552,-23.982073,62.650246
804,585566035,-38.985573,-4.059822,92.962997,0.860736,-0.945245,0.501205,65.465218,-20.595184,59.734711
805,585582702,-37.902454,-3.707351,93.842453,0.907114,-1.158833,0.188348,68.800087,-18.829901,54.600235
806,585599369,-36.765835,-3.404765,94.711678,1.012819,-0.857424,0.073030,71.673149,-19.803484,52.619347
807,585616036,-35.642750,-3.138335,95.621567,1.182504,-0.566906,-0.139111,70.742065,-21.968674,53.642204
808,585632703,-34.584358,-2.944958,96.604187,1.379575,-0.728907,-0.371963,66.874680,-27.049143,55.055027
809,585649370,-33.584518,-2.863817,97.626923,1.623675,-0.681199,-0.370893,63.346455,-32.996437,53.716560
810,585666037,-32.584015,-2.896782,98.606842,1.760660,-0.641488,-0.391432,63.233986,-36.392208,48.347401
811,585682704,-31.492928,-3.045065,99.451019,1.937568,-0.595485,-0.313476,68.344414,-37.063427,38.393936
812,585699371,-30.316984,-3.297783,100.152840,1.746046,-0.582112,-0.526083,73.146133,-37.304173,28.525627
813,585716038,-29.051567,-3.581635,100.798645,1.454751,-0.537314,-1.005188,78.513885,-36.651173,25.410250
814,585732705,-27.782347,-3.890917,101.442680,1.496883,-0.507908,-1.438495,78.939308,-37.380310,25.327261
815,585749372,-26.584629,-4.319031,102.035187,1.557138,-0.722287,-1.591452,74.679306,-41.758762,20.061764
816,585766039,-25.425837,-4.906705,102.506706,1.475141,-0.535371,-1.535959,72.078568,-46.771637,10.145412
817,585782706,-24.174011,-5.547678,102.853455,1.163155,0.258460,-1.413016,77.284630,-46.319065,2.934883
818,585799373,-22.798882,-6.124706,103.193375,0.753450,1.055553,-0.905802,84.866211,-42.557697,5.073941
819,585816040,-21.418673,-6.676301,103.537201,0.580041,0.798416,-0.821997,85.400635,-41.095615,6.806376
820,585832707,-20.130648,-7.341401,103.897003,0.521532,0.126529,-0.959346,80.206886,-47.620167,6.143644
821,585849374,-19.002304,-8.189789,104.262474,0.643774,0.130107,-1.091539,70.956917,-57.947788,3.696874
822,585866041,-17.935698,-9.171369,104.571152,0.806409,0.862327,-0.959884,67.087639,-64.370583,-1.021619
823,585882708,-16.802128,-10.235007,104.703697,0.821793,1.180856,-0.802716,69.656166,-65.954720,-11.288739
824,585899375,-15.457587,-11.356321,104.552620,0.485922,0.955341,-0.831713,79.279900,-64.855820,-26.975502
825,585916042,-13.812120,-12.513564,104.066597,-0.138762,0.787850,-0.795432,93.005241,-62.667027,-44.873478
826,585932709,-11.913405,-13.675368,103.225212,-0.688336,0.679247,-0.877803,102.794685,-59.701054,-63.180683
827,585949376,-9.839167,-14.841067,102.050499,-1.154550,0.451183,-1.202543,107.399841,-58.473885,-80.019592
828,585966043,-7.624362,-15.946527,100.604126,-1.786590,0.588113,-1.872747,110.154930,-55.526585,-92.497849
829,585982710,-5.314771,-16.916767,99.007332,-2.298218,1.356321,-2.152381,111.773415,-50.150497,-97.598343
830,585999377,-2.977608,-17.733957,97.262711,-2.553801,2.658609,-1.910178,109.348816,-44.326672,-102.944153
831,586016044,-0.600421,-18.316786,95.298332,-2.496027,3.760552,-1.542639,106.448372,-34.086590,-112.840904
832,586032711,1.939046,-18.607927,93.146637,-2.419496,3.778859,-0.894252,111.759407,-21.512274,-121.986801
833,586049378,4.566314,-18.690933,90.891296,-2.963157,3.105772,-0.181439,114.628578,-14.845478,-127.480194
834,586066045,6.988111,-18.741798,88.587524,-3.962360,2.710111,-0.083552,101.207031,-18.798710,-129.712189
835,586082712,8.858966,-18.956614,86.356667,-5.543169,2.018960,0.044091,69.250610,-32.798275,-123.454140
836,586099379,10.060317,-19.497776,84.278152,-5.251488,2.647657,0.607110,31.237911,-53.940674,-110.597420
837,586116046,10.757460,-20.265196,82.365761,-3.570667,3.640123,1.699847,3.015795,-67.331169,-97.593880
838,586132713,11.365306,-20.938387,80.727692,-1.550106,4.794841,2.457047,2.076446,-59.831940,-82.346237
839,586149380,12.044762,-21.311682,79.615112,-0.940131,5.011170,2.868907,16.886992,-37.092419,-56.244293
840,586166047,12.591254,-21.435886,79.180946,-1.615683,4.621748,2.887207,23.468029,-14.971099,-21.934597
841,586182714,12.726139,-21.475853,79.369766,-2.712212,3.410012,2.190698,12.398372,-2.531497,10.971191
842,586199381,12.412360,-21.571997,79.979881,-3.010981,1.992456,1.781223,-5.247694,-0.710743,34.648598
843,586216048,11.787135,-21.725897,80.789162,-2.586688,1.935665,1.736476,-19.462151,-2.052441,46.212330
844,586232715,11.111866,-21.811918,81.654381,-2.303881,1.895087,1.916745,-21.136280,2.035173,48.416752
845,586249382,10.577617,-21.789619,82.537170,-2.059865,1.907402,2.123383,-12.267030,8.096381,48.187695
846,586266049,10.184867,-21.646473,83.451736,-2.259182,2.116026,2.024049,-3.153119,15.170320,48.720512
847,586282716,9.806926,-21.392763,84.446030,-2.644428,1.985250,1.551355,-0.689271,22.170023,52.136196
848,586299383,9.264990,-21.118553,85.544098,-2.933362,1.371633,1.330339,-8.534886,23.952534,57.947632
849,586316050,8.451030,-20.905048,86.706062,-3.147683,0.967633,1.445623,-23.752714,20.239021,62.446636
850,586332717,7.254468,-20.779953,87.922691,-3.109878,0.993311,1.637923,-45.744190,14.324543,66.661736
851,586349384,5.735971,-20.712845,89.141823,-2.783448,1.353238,1.435528,-65.128174,9.315842,67.620705
852,586366051,4.073868,-20.584152,90.357330,-2.191383,2.204995,1.171705,-73.944939,11.117518,67.443962
853,586382718,2.404713,-20.299555,91.591263,-1.987296,2.305968,1.012923,-74.235443,18.570177,68.398201
854,586399385,0.654733,-19.924061,92.863968,-2.100398,2.087280,0.849571,-78.683807,22.052467,71.181999
855,586416052,-1.336537,-19.567709,94.191444,-2.199257,1.977292,0.503273,-92.513580,18.565798,75.182564
856,586432719,-3.602163,-19.256428,95.590172,-1.807914,1.856226,-0.116689,-107.989449,12.896482,79.985954
857,586449386,-5.979976,-18.950958,97.045319,-1.058961,2.133024,-0.484730,-114.039604,9.036524,83.850868
858,586466053,-8.280577,-18.556118,98.508224,-0.476566,2.339871,-0.203176,-109.761322,10.870578,85.513771
859,586482720,-10.406168,-18.035416,99.904587,-0.551742,2.220345,0.014173,-101.170456,15.607112,83.675880
860,586499387,-12.397627,-17.396868,101.190178,-0.722842,1.928242,-0.066236,-95.945786,20.741585,79.716476
861,586516054,-14.286611,-16.657448,102.355927,-0.506044,1.702695,-0.634885,-92.779266,25.457972,75.431725
862,586532721,-15.992569,-15.818945,103.391457,0.085898,1.313595,-1.106513,-84.902077,30.720034,70.839844
863,586549388,-17.457220,-14.871665,104.304314,0.313206,1.185168,-0.979666,-73.293877,36.976307,67.065666
864,586566055,-18.767759,-13.849597,105.113022,-0.113480,0.847146,-0.799123,-66.497795,41.424316,63.871593
865,586582722,-20.089153,-12.834552,105.805222,-0.486650,0.933576,-0.616886,-69.591553,41.750469,58.498856
866,586599389,-21.530586,-11.814581,106.344925,-0.332415,0.754771,-0.853026,-79.459091,43.732449,51.452824
867,586616056,-23.008015,-10.813795,106.729446,0.263753,-0.276330,-1.181241,-83.997238,44.763203,43.844540
868,586632723,-24.383614,-9.858782,106.979698,0.725974,-0.516703,-0.796933,-79.714836,44.302719,36.709042
869,586649390,-25.629951,-8.933557,107.049225,0.524526,-0.938280,-0.642243,-73.967384,46.334908,27.356874
870,586666057,-26.820543,-8.077844,106.933800,0.179219,-1.238652,-0.858914,-72.323029,46.848183,16.708187
871,586682724,-28.159033,-7.362783,106.679123,-0.245672,-1.815568,-1.394580,-82.224564,42.807995,6.543867
872,586699391,-29.842262,-6.927740,106.410583,-0.387033,-2.007690,-1.197283,-102.861916,28.332565,-1.139644
873,586716058,-31.710947,-6.684046,106.125648,0.252943,-0.695768,-1.083138,-114.014938,18.990465,-6.910825
874,586732725,-33.376457,-6.348999,105.741875,1.530541,0.378373,-0.840834,-102.412933,26.995226,-8.272603
875,586749392,-34.685646,-5.848553,105.212799,1.852180,0.346983,-0.542958,-81.787270,40.287022,-9.143339
876,586766059,-35.809139,-5.327769,104.552094,1.148718,-0.293244,-0.763108,-71.125328,46.023712,-13.972141
877,586782726,-37.023773,-4.919261,103.847069,0.539276,-0.067158,-0.707696,-76.509010,42.466602,-19.136353
878,586799393,-38.364479,-4.607403,103.100098,0.702655,-0.113708,-0.541879,-84.018311,39.841507,-23.675714
879,586816060,-39.699238,-4.281244,102.319366,1.473066,0.191356,-0.591888,-83.567696,42.341209,-23.726042
880,586832727,-40.931183,-3.852132,101.457138,1.985702,0.213402,-0.719801,-77.433762,50.736538,-22.446985
881,586849394,-42.062969,-3.363568,100.521797,1.765311,-0.156922,-0.738447,-71.282120,56.777645,-22.281216
882,586866061,-43.157707,-2.883875,99.527534,1.106911,-0.218535,-0.382256,-68.773926,59.212296,-24.102482
883,586882728,-44.253265,-2.421015,98.464180,1.223082,0.204227,-0.183918,-68.523689,61.810268,-26.630581
884,586899395,-45.367859,-1.954084,97.285645,1.549588,0.318646,-0.294983,-69.409538,67.366478,-30.120411
885,586916062,-46.483269,-1.469948,96.029709,1.816994,-0.213715,-0.615024,-69.007683,72.010193,-31.259016
886,586932729,-47.563766,-0.981642,94.758392,2.191352,-0.647913,-0.589886,-66.289619,73.454712,-30.282217
887,586949396,-48.595440,-0.565311,93.468277,1.812059,-0.990253,-0.215633,-62.767788,71.949829,-32.847965
888,586966063,-49.597195,-0.238197,92.129440,1.487388,-1.065585,0.005081,-60.490849,71.224709,-37.487228
889,586982730,-50.557537,-0.021356,90.731903,1.330154,-0.844339,0.794966,-57.630310,70.311340,-43.555119
890,586999397,-51.449493,0.105668,89.271294,0.885979,-1.136533,1.051717,-53.272564,70.550629,-48.942490
891,587016064,-52.216793,0.181072,87.764015,0.015634,-1.940067,1.116148,-45.634808,71.534111,-52.043697
892,587032731,-52.875435,0.216850,86.191719,-0.047291,-2.309800,1.265775,-39.017242,73.821404,-55.383991
893,587049398,-53.485226,0.210655,84.523926,0.356927,-3.072532,1.537350,-36.046291,77.496185,-59.988403
894,587066065,-54.179737,0.141668,82.920311,1.203460,-4.432387,1.164806,-41.210220,72.836098,-59.849438
895,587082732,-55.063999,-0.038988,81.641579,1.347554,-5.826707,0.763980,-52.820843,53.858761,-52.990894
896,587099399,-55.984138,-0.308639,80.880333,1.752705,-5.876020,1.460945,-55.179665,26.050930,-38.933685
897,587116066,-56.603954,-0.601756,80.544937,2.262374,-4.836405,2.876757,-37.177128,4.508258,-25.550144
898,587132733,-56.673340,-0.808786,80.442795,2.342252,-3.798707,3.720170,-4.059308,-4.203431,-13.502384
899,587149400,-56.145687,-0.878969,80.458069,1.874238,-3.285714,3.625100,31.860729,-5.604143,-2.763390
900,587166067,-55.219673,-0.806585,80.614700,1.031894,-2.682785,3.072292,55.893585,-7.840458,9.117732
901,587182734,-54.206146,-0.612464,80.936348,0.174001,-2.337750,2.268730,61.249245,-11.559276,20.881603
902,587199401,-53.352932,-0.355794,81.440262,-0.440263,-2.367845,1.657905,51.648087,-17.837057,30.510363
903,587216068,-52.771061,-0.096751,82.098953,-0.289429,-2.434713,1.352971,35.268032,-24.801544,36.388184
904,587232735,-52.404102,0.127720,82.850723,0.461566,-2.736696,1.346617,22.203047,-30.204054,38.312252
905,587249402,-52.056576,0.316405,83.637474,1.352536,-2.969398,1.461388,20.869217,-32.951691,38.069977
906,587266069,-51.515202,0.520616,84.392952,1.821732,-2.319519,1.594107,32.354637,-30.618256,37.868858
907,587282736,-50.703766,0.805277,85.087585,1.820455,-1.966907,1.426309,48.413296,-24.314070,39.664268
908,587299403,-49.694122,1.156458,85.795990,1.426534,-2.034347,0.934552,60.065147,-21.776493,43.596931
909,587316070,-48.629063,1.495008,86.570152,1.187142,-1.939823,0.720593,63.046555,-24.469736,45.937431
910,587332737,-47.562798,1.747351,87.413078,1.134428,-2.000277,0.784832,62.765217,-30.138491,45.232807
911,587349404,-46.473240,1.857968,88.287964,1.057370,-1.828345,0.840126,63.945004,-36.493450,40.825134
912,587366071,-45.313427,1.867985,89.165337,0.978379,-1.623643,0.726124,68.101517,-40.005642,37.249287
913,587382738,-44.019100,1.876327,90.040359,1.051744,-1.174872,0.587846,76.170395,-39.186691,37.874737
914,587399405,-42.619858,1.909004,90.926735,1.101793,-1.026266,0.530903,82.425163,-37.700020,40.222710
915,587416072,-41.209789,1.889976,91.835098,1.330181,-1.144058,0.324979,83.026665,-39.906822,39.981583
916,587432739,-39.808716,1.750078,92.751587,1.513672,-1.335216,0.053231,82.549843,-44.756359,36.543720
917,587449406,-38.373547,1.450175,93.635239,1.827749,-1.081824,0.110264,84.863876,-50.064816,29.999041
918,587466073,-36.890018,1.002072,94.443817,2.029348,-0.433284,0.026275,88.211571,-53.598774,22.216911
919,587482740,-35.245140,0.552897,95.129517,2.220409,-0.230262,-0.633356,98.380447,-48.698452,17.609402
920,587499407,-33.345070,0.227565,95.762688,2.177680,-0.413824,-1.073511,113.996361,-40.235462,20.621059
921,587516074,-31.380245,-0.084495,96.444466,1.793841,-1.080908,-1.289436,118.095993,-40.417828,24.769541
922,587532741,-29.626991,-0.585338,97.214363,1.270271,-1.621103,-1.102162,105.727570,-52.049927,24.786093
923,587549408,-28.119812,-1.342263,98.022163,1.299366,-1.460718,-0.872651,91.508743,-65.891533,20.758703
924,587566075,-26.621729,-2.265319,98.716209,1.860148,-0.489330,-0.971596,91.462105,-71.047050,11.755387
925,587582742,-24.860783,-3.157630,99.118965,2.105797,-0.000107,-1.516887,107.072388,-61.442482,-1.249019
926,587599409,-22.772669,-3.942972,99.236977,1.758652,-0.223456,-2.064292,126.006569,-48.696972,-12.295085
927,587616076,-20.682364,-4.762022,99.183273,1.003657,-0.945932,-2.538104,125.462296,-47.198158,-20.906477
928,587632743,-18.933466,-5.818391,99.049339,0.210693,-1.813416,-2.981739,104.485023,-59.657932,-28.727369
929,587649410,-17.587704,-7.241202,98.874962,-0.059054,-1.759292,-2.899605,79.847603,-80.553917,-36.335453
930,587666077,-16.380024,-8.919898,98.586227,0.466093,-0.147784,-2.644716,70.319199,-94.063568,-45.533157
931,587682744,-14.973294,-10.616166,98.062881,0.934331,1.040647,-2.783028,79.374756,-92.368446,-57.000950
932,587699411,-13.231362,-12.240557,97.314651,0.791068,1.323329,-2.851571,95.925537,-86.540176,-66.130066
933,587716078,-11.318585,-13.849996,96.450928,0.014404,1.465719,-2.597707,103.381721,-86.352814,-69.561539
934,587732745,-9.377441,-15.514013,95.502243,-0.916252,1.808163,-1.944622,102.356674,-91.042404,-71.811081
935,587749412,-7.406444,-17.179722,94.444664,-1.192547,2.358220,-0.817308,100.716515,-92.687843,-74.532402
936,587766079,-5.238370,-18.695808,93.221718,-0.782422,3.531934,0.203253,107.803040,-85.410980,-79.111252
937,587782746,-2.859509,-19.859320,91.781578,-1.054019,4.224586,0.568676,114.522316,-66.545471,-86.003487
938,587799413,-0.162899,-20.472843,90.055367,-1.860284,3.735894,-0.015168,126.407776,-36.883110,-97.887390
939,587816080,2.650876,-20.579786,88.182602,-3.256389,2.075722,-1.784826,129.736389,-11.329344,-104.795914
940,587832747,5.329301,-20.480463,86.193741,-5.058580,0.218936,-3.296559,119.149208,-4.449216,-111.636261
941,587849414,7.683356,-20.666285,83.966743,-6.303025,-0.244939,-1.593863,94.560097,-27.863058,-122.767418
942,587866081,9.482084,-21.340988,81.333939,-6.602699,3.285588,2.362435,51.548382,-64.637856,-139.522598
943,587882748,11.001254,-22.149769,78.413429,-4.531649,6.794683,5.709818,26.445776,-79.277832,-151.299240
944,587899415,12.506702,-22.659990,75.594261,-1.831262,8.527390,4.979790,26.054852,-64.394684,-146.629608
945,587916082,13.945336,-22.780729,73.532257,-0.485270,8.331702,3.582287,38.721500,-35.712433,-109.223480
946,587932749,14.908956,-22.771267,72.672691,-1.015542,6.141884,3.398595,38.033680,-13.823511,-46.003193
947,587949416,15.136116,-22.913475,73.023575,-2.777761,3.766427,2.828952,21.973164,-5.719719,21.119747
948,587966083,14.778289,-23.109552,74.216728,-3.256877,3.338836,2.949056,6.673361,3.143260,66.854477
949,587982750,14.105727,-23.044235,75.703110,-3.396613,2.999757,3.251818,-5.252738,21.768984,78.627350
950,587999417,13.401320,-22.646793,77.157974,-3.300813,2.680986,2.851185,-8.243520,39.807362,72.612312
951,588016084,12.847740,-22.054224,78.614906,-3.312256,2.727566,2.465913,0.143108,50.510876,70.795647
952,588032751,12.316397,-21.413101,80.174309,-3.761451,2.961467,1.903564,2.868244,54.013512,76.566223
953,588049418,11.667649,-20.821266,81.848763,-4.156978,2.522595,1.410133,-2.635933,51.756622,84.406860
954,588066085,10.783344,-20.310204,83.601311,-4.017056,2.415818,1.301822,-16.040852,46.800320,90.697090
955,588082752,9.676994,-19.839052,85.393852,-3.866734,2.255300,1.337176,-29.393082,43.331234,94.481110
956,588099419,8.419373,-19.368992,87.185402,-3.350854,2.365727,1.314551,-39.334568,41.361420,95.642471
957,588116086,6.997472,-18.887775,88.932617,-3.232104,2.016655,1.293042,-50.908401,39.497528,94.347519
958,588132753,5.335239,-18.434753,90.638298,-3.361612,1.505797,1.130858,-66.941681,35.054558,93.547226
959,588149420,3.341962,-18.032284,92.301216,-3.322761,1.328672,0.695354,-88.336327,28.878649,92.727974
960,588166087,1.046376,-17.646740,93.879349,-2.858938,1.145182,0.069886,-108.690842,24.213823,89.245262
961,588182754,-1.537836,-17.305378,95.362312,-2.366121,0.737992,-0.276447,-128.297409,17.781746,85.025352
962,588199421,-4.460116,-17.115812,96.801529,-2.157979,0.700128,-0.674678,-149.754974,4.722414,83.037460
963,588216088,-7.559706,-17.057413,98.167046,-1.536800,1.317644,-1.251431,-161.873489,-7.020205,78.330635
964,588232755,-10.539456,-16.934761,99.486641,-0.901546,1.777905,-1.103354,-155.608429,-6.932363,76.029991
965,588249422,-13.168044,-16.569807,100.727234,-0.255200,1.966707,-0.554677,-136.226151,4.517510,74.354332
966,588266089,-15.484768,-16.003099,101.797783,0.017739,1.732941,-0.517982,-120.947243,15.432015,68.263550
967,588282756,-17.677042,-15.384356,102.691536,0.042956,1.237855,-1.053798,-116.982315,18.604809,60.191261
968,588299423,-19.914295,-14.833933,103.481491,0.210651,1.178457,-1.905160,-121.824539,14.286996,54.084637
969,588316090,-22.113268,-14.313190,104.208939,0.168200,0.864991,-1.535976,-120.891632,11.794606,50.770950
970,588332757,-24.105165,-13.721576,104.857834,0.370320,0.735372,-0.843356,-110.013779,15.604718,48.819809
971,588349424,-25.867851,-13.021241,105.351288,0.916120,1.199760,-0.842616,-98.836182,23.707802,44.007206
972,588366091,-27.475151,-12.204992,105.617027,1.008112,1.432535,-1.375765,-92.866470,34.570320,36.055195
973,588382758,-29.053972,-11.352228,105.764336,0.520695,0.656001,-0.961783,-92.828835,38.769104,32.016457
974,588399425,-30.642776,-10.518312,105.895348,0.562587,0.792546,-0.291487,-93.731026,37.352081,31.779562
975,588416092,-32.234299,-9.632006,105.966270,0.718497,1.068341,-0.486254,-94.633995,40.990032,31.500074
976,588432759,-33.682503,-8.644011,105.913490,0.923750,1.319611,-0.763377,-87.273010,49.246117,29.824913
977,588449426,-35.009544,-7.567519,105.697769,0.769636,1.502834,-0.821254,-81.317177,58.361050,26.066660
978,588466093,-36.248711,-6.449197,105.301483,0.323006,0.872806,-0.562715,-77.111351,66.091805,20.124998
979,588482760,-37.485558,-5.354051,104.762207,0.771849,-0.022957,-0.758749,-77.394875,69.691673,13.890595
980,588499427,-38.796604,-4.355222,104.131233,1.184420,-0.534326,-1.464020,-81.718758,68.239098,7.574056
981,588516094,-40.178246,-3.485700,103.411499,1.503165,-0.360994,-1.907284,-85.699234,65.466164,0.157416
982,588532761,-41.605133,-2.755433,102.578392,1.113232,-0.642460,-1.871537,-88.177452,63.587482,-8.799638
983,588549428,-42.967682,-2.206201,101.610222,0.215657,-0.929788,-1.054079,-84.111198,61.214996,-20.510744
984,588566095,-44.207851,-1.744912,100.441467,0.220705,-0.511635,-0.879122,-76.671745,66.144112,-31.416464
985,588582762,-45.369278,-1.350411,99.040642,0.620119,-1.017914,-1.281577,-71.805641,73.761383,-42.689991
986,588599429,-46.624229,-1.087507,97.560333,1.050414,-1.900414,-1.902915,-77.038605,72.591156,-50.074959
987,588616096,-48.073227,-1.047458,96.139915,1.070645,-2.574640,-2.107998,-88.383499,62.047352,-55.691521
988,588632763,-49.731785,-1.298137,94.796135,0.703737,-1.687884,-1.175268,-101.022789,48.596447,-64.046898
989,588649430,-51.439976,-1.727607,93.364540,1.054274,-0.671764,-0.129303,-104.622650,47.697800,-74.139099
990,588666097,-53.074844,-2.234224,91.835396,1.003375,-0.440464,0.580863,-101.129150,51.618187,-79.873291
991,588682764,-54.640583,-2.738900,90.337067,0.913032,-1.052292,0.576954,-97.716003,52.379364,-77.130798
992,588699431,-56.252201,-3.279987,89.034134,1.307403,-1.683363,0.342733,-100.675697,43.573627,-70.714844
993,588716098,-57.706993,-3.866313,87.843140,2.154286,-1.271379,1.388498,-91.618629,38.308971,-68.060036
994,588732765,-58.732914,-4.451061,86.539749,2.532171,-0.979365,2.750985,-67.101707,45.485416,-70.593765
995,588749432,-59.254417,-4.989302,85.068588,2.281085,-1.662043,3.081453,-38.426365,56.411827,-72.684181
996,588766099,-59.490299,-5.500067,83.601746,1.587631,-2.558286,2.600246,-22.068878,57.433743,-70.711639
997,588782766,-59.692284,-5.997806,82.311310,0.947631,-3.020308,2.208008,-19.743046,48.938515,-64.442085
998,588799433,-59.911659,-6.436646,81.201950,1.077594,-3.058029,2.076591,-20.241528,41.555214,-55.745583
999,588816100,-60.038906,-6.744077,80.185936,1.315129,-3.198926,1.803421,-14.500346,40.786167,-45.982834
1000,588832767,-60.040531,-6.921459,79.246086,1.138378,-3.212686,1.829113,-6.671246,40.773705,-36.903934
1001,588849434,-60.013424,-7.040647,78.414268,0.829508,-3.040673,1.759320,-4.300382,36.905521,-30.670500
1002,588866101,-59.978165,-7.117935,77.713432,0.647073,-2.886227,1.607637,-2.926318,31.367159,-24.618153
1003,588882768,-59.935097,-7.139710,77.146088,0.664283,-2.754641,1.390082,-1.493546,26.123243,-17.786533
1004,588899435,-59.851910,-7.080235,76.695465,0.817004,-2.761406,0.881597,1.792720,22.525808,-10.117230
1005,588916102,-59.691196,-6.941114,76.340553,0.997550,-2.584639,0.776899,7.197405,19.980251,-3.182063
1006,588932769,-59.474617,-6.742580,76.072105,0.634325,-2.691002,0.409154,11.236058,17.325462,2.418297
1007,588949436,-59.300278,-6.537432,75.942772,0.318721,-2.539689,0.396802,9.726999,10.393776,6.904261
1008,588966103,-59.214413,-6.357546,75.941856,0.448536,-2.362367,0.341303,5.311270,3.054905,9.474270
1009,588982770,-59.130901,-6.189234,76.028648,0.875346,-2.366053,0.299661,5.748965,-1.788440,11.548246
1010,588999437,-58.915211,-6.011404,76.162247,1.212293,-2.184531,0.528941,13.968091,-3.869969,13.467400
1011,589016104,-58.612225,-5.835264,76.329826,1.111907,-2.022240,0.685631,19.397192,-5.613753,14.440483
1012,589032771,-58.371769,-5.674060,76.620445,0.698862,-2.181025,0.395789,16.361362,-12.277645,17.523851
1013,589049438,-58.311913,-5.539733,77.114952,0.671875,-2.221620,0.439940,6.682078,-23.459648,22.564062
1014,589066105,-58.303261,-5.422752,77.762535,1.008402,-2.457680,0.843777,4.423680,-31.785976,26.497480
1015,589082772,-58.119049,-5.300093,78.459221,1.401127,-2.275368,1.572498,15.156410,-34.073715,28.380474
1016,589099439,-57.638252,-5.141937,79.100357,1.478586,-2.084997,1.727824,32.552952,-29.989523,28.604574
1017,589116106,-56.869877,-4.897812,79.679558,1.100287,-2.159642,1.499153,49.353088,-23.785421,31.243380
1018,589132773,-55.938007,-4.568528,80.257355,0.830493,-2.300928,1.236794,58.986259,-20.451124,35.769188
1019,589149440,-54.957237,-4.201230,80.892906,0.641298,-2.625750,1.000638,61.977634,-21.432716,39.907764
1020,589166107,-53.991055,-3.850545,81.637070,0.280214,-2.827071,1.066537,61.324486,-26.658699,43.196548
1021,589182774,-53.026276,-3.530522,82.482613,0.380824,-2.531084,1.425359,61.371239,-31.918922,45.728508
1022,589199441,-51.958027,-3.197767,83.341873,0.840879,-2.337772,1.534882,67.338043,-31.319757,47.359245
1023,589216108,-50.712284,-2.806236,84.165993,1.426477,-2.350641,1.167145,77.553230,-26.529427,49.369354
1024,589232775,-49.296059,-2.367655,84.941605,1.913998,-2.637775,0.709764,87.296425,-21.366274,50.223114
1025,589249442,-47.798378,-1.973428,85.721405,1.961143,-3.035568,0.211217,91.861504,-22.067669,48.862415
1026,589266109,-46.250717,-1.725133,86.538033,2.205505,-2.681834,0.590491,94.672012,-28.379465,44.471775
1027,589282776,-44.559227,-1.632009,87.302315,2.998864,-1.412948,1.216540,103.071075,-31.424997,36.345116
1028,589299443,-42.570011,-1.570674,87.852295,3.637335,-0.546187,1.149548,120.522049,-22.794920,26.631563
1029,589316110,-40.247849,-1.398147,88.262039,3.199335,-1.023518,0.065318,140.226151,-11.228802,25.486519
1030,589332777,-37.715717,-1.114398,88.693947,2.308640,-1.746882,-0.894017,152.764755,-5.809267,31.068771
1031,589349444,-35.285824,-0.892090,89.307465,1.507919,-2.274348,-1.109422,146.710556,-13.928848,37.745049
1032,589366111,-33.224449,-0.919429,90.186699,1.291135,-2.196870,-1.293537,124.791847,-33.819550,42.918831
1033,589382778,-31.498083,-1.220856,91.265343,1.822752,-1.625966,-1.166289,105.066025,-52.687645,45.215034
1034,589399445,-29.811533,-1.687339,92.370766,2.609597,-1.112880,-1.118989,103.154236,-60.671192,43.019444
1035,589416112,-27.916658,-2.231236,93.368484,3.322272,-0.560928,-1.040147,116.022827,-60.257793,36.906834
1036,589432779,-25.785856,-2.833035,94.216949,3.130892,-0.384552,-1.138307,130.391586,-57.986393,29.337490
1037,589449446,-23.551733,-3.499947,94.959679,2.372222,-0.399871,-1.418507,136.813217,-57.740837,24.017017
1038,589466113,-21.386963,-4.260388,95.611450,1.621468,-1.205666,-1.784487,132.843689,-59.880459,18.909225
1039,589482780,-19.349567,-5.212842,96.157913,1.881419,-1.539143,-1.908671,125.267624,-67.761215,11.051028
1040,589499447,-17.455574,-6.412347,96.536606,2.580458,-0.840661,-1.793508,116.265091,-78.247665,-0.942766
1041,589516114,-15.628497,-7.804466,96.730103,2.574977,-0.441218,-1.896912,111.394302,-86.171158,-12.410777
1042,589532781,-13.743437,-9.376736,96.762032,2.071433,0.006367,-2.135793,113.735237,-94.557625,-21.749992
1043,589549448,-11.786024,-11.115891,96.570358,0.792649,0.438643,-2.078659,115.753555,-102.088760,-33.753395
1044,589566115,-9.684958,-12.925184,96.040405,-0.304074,1.280903,-2.415092,119.803871,-103.674973,-50.434013
1045,589582782,-7.340516,-14.633294,95.095253,-1.335064,2.001326,-2.730352,127.528297,-96.002808,-69.285904
1046,589599449,-4.733515,-16.134827,93.699379,-2.669284,2.343207,-2.836347,134.567276,-83.875420,-89.438232
1047,589616116,-1.896176,-17.444603,91.850700,-4.060958,2.537110,-2.805329,138.561264,-75.067657,-110.211182
1048,589632783,1.107069,-18.654221,89.574158,-5.418627,3.590833,-1.381530,138.215317,-74.406723,-130.040680
1049,589649450,4.226218,-19.752743,86.877831,-6.318530,5.705697,0.417977,134.254593,-75.645042,-149.220428
1050,589666117,7.376948,-20.555027,83.929604,-6.716227,8.175057,1.874045,128.391388,-67.343369,-160.038330
1051,589682784,10.456726,-20.924421,80.945244,-5.991295,9.724952,2.220797,121.647736,-50.486931,-161.713684
1052,589699451,13.318460,-20.919144,78.148895,-4.999530,9.403834,3.317997,112.038086,-34.577671,-153.167740
1053,589716118,15.654882,-20.757853,75.808754,-2.275405,9.757320,5.036320,90.472397,-26.029663,-129.239746
1054,589732785,17.096272,-20.423458,74.320206,-0.721583,9.054963,4.043599,55.296223,-6.868259,-85.667503
1055,589749452,17.735283,-20.047930,74.044754,-1.265658,6.380136,1.873397,32.845196,14.341496,-21.353516
1056,589766119,17.816748,-19.873520,74.950539,-1.627177,4.556575,1.502439,23.644953,23.061270,45.616856
1057,589782786,17.466639,-19.767624,76.618866,-2.965542,4.150871,1.535983,13.135151,32.106853,87.967545
1058,589799453,16.884832,-19.571354,78.579651,-4.314268,2.652617,1.333073,4.878015,41.488129,102.501167
1059,589816120,16.183025,-19.330036,80.367577,-4.958760,1.394563,0.866839,-6.211792,40.197693,92.974701
1060,589832787,15.513800,-19.105265,81.794342,-4.448610,0.979702,0.558100,-11.820065,32.586018,74.208221
1061,589849454,14.966316,-18.923338,82.910965,-4.230307,0.150981,0.173049,-10.886770,24.719870,58.356339
1062,589866121,14.602028,-18.878977,83.819138,-3.533174,-0.063478,0.494269,-4.084661,13.269491,49.274078
1063,589882788,14.391002,-18.898851,84.596161,-2.965962,0.867672,1.157623,2.539292,7.429955,43.112518
1064,589899455,14.230542,-18.840313,85.355499,-3.014758,1.514074,1.700054,5.203299,11.604620,41.003510
1065,589916122,13.895277,-18.699017,86.193771,-3.359535,1.884995,2.000120,-3.846622,17.344154,44.212872
1066,589932789,13.245047,-18.522335,87.168259,-3.705089,1.883651,1.837313,-20.279566,20.864893,51.460869
1067,589949456,12.198681,-18.367748,88.317123,-3.586501,1.882754,1.931556,-40.906879,21.016228,61.814232
1068,589966123,10.795057,-18.241266,89.598549,-3.211406,2.111108,2.019320,-60.016708,19.565214,70.080177
1069,589982790,9.146482,-18.092302,90.956879,-3.038718,2.337767,2.047332,-73.457809,19.804035,74.772476
1070,589999457,7.311288,-17.873768,92.359108,-3.153482,2.649622,1.807114,-84.093895,22.040977,77.374886
1071,590016124,5.260097,-17.587545,93.812004,-3.258278,2.564307,1.127235,-96.484169,23.789135,80.704567
1072,590032791,2.929383,-17.319336,95.302254,-2.953244,2.170664,0.293658,-112.992355,19.789202,83.972618
1073,590049458,0.374927,-17.149942,96.845634,-2.161727,1.935319,-0.128236,-125.798477,10.374157,88.157715
1074,590066125,-2.202274,-17.005146,98.449348,-1.356719,2.355520,-0.078970,-126.334976,4.901138,92.163147
1075,590082792,-4.474184,-16.704067,99.960091,-1.056341,3.284002,0.213754,-109.989319,10.678051,87.711342
1076,590099459,-6.374887,-16.095493,101.350281,-1.068236,3.264656,0.054481,-90.441757,26.496998,83.169327
1077,590116126,-8.130971,-15.297249,102.637260,-1.623772,2.592221,-0.407544,-84.410515,35.849388,79.852821
1078,590132793,-9.918701,-14.444012,103.858406,-1.610854,2.005654,-1.024083,-88.387848,37.186680,78.038551
1079,590149460,-11.714021,-13.591337,105.025856,-0.757561,1.792854,-1.098840,-90.669106,35.238293,76.433182
1080,590166127,-13.334061,-12.691382,106.067856,0.033876,2.003919,-0.847093,-82.891426,37.252239,71.232704
1081,590182794,-14.756308,-11.687955,106.958008,-0.166489,1.797957,-0.880247,-73.949402,43.480587,65.354149
1082,590199461,-16.117044,-10.610442,107.723549,-0.740642,1.248323,-1.282636,-72.642349,48.068527,60.744282
1083,590216128,-17.557970,-9.525274,108.369102,-0.566858,0.783672,-1.685771,-79.553688,49.014187,55.475151
1084,590232795,-19.202229,-8.531314,108.909706,0.062277,0.679093,-1.924060,-93.424599,44.232235,49.326550
1085,590249462,-20.985754,-7.640198,109.343765,0.447915,0.842763,-1.865889,-103.198608,39.089378,42.704807
1086,590266129,-22.671293,-6.732279,109.610016,0.832357,1.293946,-1.571815,-98.974670,42.402733,35.110249
1087,590282796,-24.132759,-5.733448,109.670250,0.740129,1.278644,-0.911817,-87.124435,51.285686,27.260885
1088,590299463,-25.433857,-4.627089,109.503319,0.404216,1.156455,-1.096940,-78.791336,62.158165,18.925198
1089,590316130,-26.755379,-3.471856,109.142006,0.393389,0.104879,-1.827674,-80.634438,69.458656,11.237711
1090,590332797,-28.258867,-2.414486,108.660912,0.911499,-0.268198,-2.473385,-91.499001,67.272758,3.915662
1091,590349464,-29.932076,-1.513135,108.072830,1.158533,0.020249,-2.379086,-101.405525,62.080669,-4.330632
1092,590366131,-31.677294,-0.738204,107.334259,1.087023,0.546804,-1.931855,-105.382195,60.287437,-14.052879
1093,590382798,-33.414803,-0.055854,106.416229,0.900002,0.833262,-1.682425,-104.425972,61.796764,-24.201694
1094,590399465,-35.159348,0.535522,105.304878,1.040707,1.260319,-1.649686,-104.183968,64.521004,-34.893444
1095,590416132,-36.870781,1.057063,104.007889,1.891958,1.402039,-1.182784,-101.391136,68.694954,-44.319584
1096,590432799,-38.481998,1.515601,102.521103,2.535878,0.987200,-0.961754,-94.453773,73.895691,-53.534527
1097,590449466,-39.866768,1.909296,100.840790,2.653282,-0.075182,-0.405396,-79.851158,79.573578,-62.963764
1098,590466133,-41.035908,2.207628,99.007988,2.073897,-0.682135,0.425317,-65.974075,82.518532,-71.777603
1099,590482800,-42.161137,2.358786,97.067558,1.333093,-0.853377,0.874572,-62.651463,81.590942,-80.729362
1100,590499467,-43.467350,2.350326,95.110031,0.868033,-1.978192,0.183093,-73.321335,76.951927,-86.186996
1101,590516134,-44.992905,2.136341,93.243935,1.049814,-2.779363,-0.075329,-86.927589,66.394379,-88.874146
1102,590532801,-46.685368,1.702412,91.488228,1.312009,-2.440171,0.248489,-97.797310,54.925358,-91.770615
1103,590549468,-48.330944,1.119647,89.741570,1.449210,-1.739827,1.196209,-95.932518,51.164104,-96.305283
1104,590566135,-49.778336,0.442869,87.942146,1.270877,-1.825983,1.992265,-85.150902,52.452000,-101.170036
1105,590582802,-50.905125,-0.258587,86.087852,1.105296,-2.005886,2.451612,-67.207619,56.300056,-103.153954
1106,590599469,-51.704548,-0.919186,84.202843,1.283004,-1.994284,2.691732,-48.911560,60.985935,-101.389748
1107,590616136,-52.293983,-1.505800,82.343094,1.175622,-2.384625,2.376190,-37.509666,63.729122,-96.170784
1108,590632803,-52.762352,-1.990017,80.580490,1.222637,-2.656054,2.017133,-31.109505,63.699123,-87.121628
1109,590649470,-53.135757,-2.360982,78.938370,1.303029,-2.754394,2.053219,-25.926121,62.638390,-76.844551
1110,590666137,-53.413528,-2.595070,77.431168,1.222824,-2.847061,1.859343,-20.357386,61.476486,-65.042465
1111,590682804,-53.649765,-2.686098,76.090698,1.049090,-3.293367,1.386521,-17.657911,58.826721,-51.916767
1112,590699471,-53.908871,-2.691745,74.953461,0.982469,-3.567308,0.892854,-18.521721,52.227589,-40.313332
1113,590716138,-54.103863,-2.631202,73.948860,1.049510,-3.499324,0.678094,-14.272407,48.284363,-32.213570
1114,590732805,-54.127930,-2.505157,72.969879,1.147640,-3.212878,0.744057,-3.847866,49.405838,-28.039270
1115,590749472,-53.971184,-2.346151,71.980042,0.662926,-2.889266,0.564157,7.122907,51.063747,-26.884169
1116,590766139,-53.762989,-2.163917,71.024101,0.183814,-2.664890,0.036807,10.468255,50.162407,-24.743179
1117,590782806,-53.631428,-1.939647,70.178528,-0.016431,-2.672005,-0.515986,6.309777,46.247986,-18.952017
1118,590799473,-53.614494,-1.666834,69.464569,0.123966,-2.494257,-0.913916,-0.097982,41.598156,-11.995261
1119,590816140,-53.690517,-1.398285,68.866364,0.575810,-1.777765,-0.469899,-5.285935,35.858017,-8.067986
1120,590832807,-53.824154,-1.201961,68.312332,0.924751,-0.905819,0.356112,-8.535698,31.175898,-9.932556
1121,590849474,-53.918442,-1.059781,67.737488,0.803885,-0.609585,0.579556,-6.098395,30.288157,-13.220725
1122,590866141,-53.912720,-0.934063,67.156464,0.760955,-0.629430,0.469422,-0.025882,30.022049,-14.214886
1123,590882808,-53.832176,-0.812922,66.593613,0.895670,-0.669293,0.169248,4.558533,28.961149,-13.815440
1124,590899475,-53.768456,-0.706191,66.103813,0.610326,-0.967908,-0.336288,3.673954,24.907402,-11.969897
1125,590916142,-53.787930,-0.652707,65.750824,0.333025,-1.125437,-0.387226,-1.177532,16.385389,-9.703357
1126,590932809,-53.927986,-0.683293,65.540276,0.221128,-1.080106,-0.097059,-8.307867,6.531518,-8.714943
1127,590949476,-54.122883,-0.780696,65.459541,0.146015,-1.230311,-0.001792,-11.513736,-2.100499,-7.357407
1128,590966143,-54.330368,-0.928581,65.489883,0.340356,-1.367028,0.198439,-12.179310,-9.259768,-5.912120
1129,590982810,-54.499126,-1.123109,65.616455,0.383863,-1.594166,0.190185,-9.746107,-15.564207,-4.854792
1130,590999477,-54.569729,-1.335411,65.834976,0.282903,-1.879256,0.107691,-3.711049,-20.665874,-2.543518
1131,591016144,-54.519501,-1.551054,66.133194,0.314388,-1.871038,0.464108,3.708182,-24.668718,0.049183
1132,591032811,-54.425980,-1.767136,66.530426,0.094731,-2.074542,0.473290,6.545558,-29.518503,3.509253
1133,591049478,-54.403568,-2.002473,67.091713,-0.290782,-2.685388,0.144109,2.696411,-38.187923,8.319427
1134,591066145,-54.495041,-2.307673,67.867821,-0.217429,-3.093041,0.204281,-3.493465,-51.109402,12.373840
1135,591082812,-54.605656,-2.714329,68.805038,0.226136,-3.030302,0.789913,-3.928532,-62.522366,12.918033
1136,591099479,-54.540783,-3.199968,69.799934,0.443677,-2.677058,1.291238,7.216352,-68.077484,11.023309
1137,591116146,-54.181637,-3.658420,70.771797,0.498787,-2.307336,1.201032,25.279133,-65.946243,11.769471
1138,591132813,-53.540337,-3.991035,71.753471,0.236029,-2.317469,1.047105,42.649635,-61.842064,18.750330
1139,591149480,-52.795341,-4.240491,72.841789,0.036532,-2.470505,1.064212,49.628067,-63.709671,27.268860
1140,591166147,-52.101505,-4.492581,74.088951,0.065965,-2.256857,1.069789,47.567284,-70.982491,33.686394
