sep=,
DeviceTag:,DOT10
FirmwareVersion:,3.0.0
AppVersion:,2023.6.0
SyncStatus:,Synced
OutputRate:,60Hz
FilterProfile:,Dynamic
Measurement Mode:,Custom modes - custom mode1
StartTime: ,2026-06-02_17:23:01_275 GMT+2
© Movella Technologies B. V. 2005-2026

PacketCounter,SampleTimeFine,Euler_X,Euler_Y,Euler_Z,FreeAcc_X,FreeAcc_Y,FreeAcc_Z,Gyr_X,Gyr_Y,Gyr_Z
1,179987887,-147.142944,-61.485706,157.741211,1.077324,1.448910,1.127518,24.642254,-0.819532,-7.591148
2,180004554,-147.541733,-61.475441,158.353760,0.459007,2.020600,0.806826,9.752657,-10.929876,-14.470696
3,180021221,-148.528366,-61.431335,159.330750,0.733482,1.515923,1.362123,-6.314446,-18.012022,-22.385017
4,180037888,-149.955353,-61.334164,160.528473,0.476515,0.863270,1.827651,-21.142990,-23.547268,-26.608772
5,180054555,-151.597427,-61.197136,161.801163,0.401042,0.383340,1.731637,-30.174192,-26.029882,-28.031813
6,180071222,-153.299225,-61.058128,163.090088,-0.264187,0.154650,0.937064,-32.992058,-25.596798,-29.255583
7,180087889,-155.051300,-60.923729,164.380081,-0.517240,-0.290235,0.409810,-36.045509,-24.543905,-30.276176
8,180104556,-156.763992,-60.836311,165.638443,-0.309122,-0.619320,0.132239,-35.411934,-20.720173,-31.404791
9,180121223,-158.177368,-60.875713,166.780182,0.247309,-0.969029,0.238685,-23.584276,-11.538783,-31.726912
10,180137890,-159.231247,-61.104088,167.796875,0.436014,-1.224304,0.093553,-8.498878,1.080995,-32.549271
11,180154557,-160.009933,-61.478561,168.717896,0.072423,-1.173780,-0.699327,3.128111,10.875179,-32.722435
12,180171224,-160.724182,-61.910080,169.612717,-0.346861,-0.910219,-1.404305,5.792063,14.890018,-32.697308
13,180187891,-161.390793,-62.367142,170.483826,-0.715093,-0.748663,-1.767315,7.586126,17.060219,-32.029640
14,180204558,-162.042709,-62.812710,171.332748,-1.039895,-0.596841,-2.082357,7.473916,17.078350,-30.679823
15,180221225,-162.802963,-63.169750,172.126007,-1.089250,-0.703167,-2.082283,-1.836667,12.936306,-27.105907
16,180237892,-163.463608,-63.469425,172.747650,-0.558052,-0.650679,-1.576811,-4.941878,11.384875,-21.277924
17,180254559,-163.837280,-63.767082,173.152908,-0.474586,-0.194901,-1.821330,0.732262,13.126866,-15.431904
18,180271226,-164.032425,-64.033455,173.360092,-0.964448,0.010897,-2.024081,0.822738,12.872193,-9.715801
19,180287893,-164.023315,-64.240097,173.354828,-1.446646,0.059269,-2.068618,1.631568,10.984281,-3.317173
20,180304560,-163.784607,-64.371429,173.163483,-1.617244,-0.316448,-1.806685,5.347158,7.968580,2.560214
21,180321227,-163.417160,-64.412544,172.784470,-1.253236,-0.024854,-0.878511,2.909444,4.148676,8.694075
22,180337894,-162.869492,-64.416267,172.220627,-0.294288,-0.106510,0.322536,3.717040,3.455495,13.878130
23,180354561,-162.093491,-64.452225,171.481796,-0.131776,0.306630,0.965035,7.940889,6.815607,17.554924
24,180371228,-161.328217,-64.452019,170.708344,-1.090301,0.583603,0.690074,5.418828,5.269340,18.968414
25,180387895,-160.821793,-64.375519,170.050613,-2.044935,0.979692,0.499212,-3.835980,0.183112,17.575102
26,180404562,-160.747467,-64.228233,169.669083,-1.605793,0.871976,0.956315,-14.792366,-6.090990,12.251884
27,180421229,-161.042587,-64.040878,169.580826,-0.778931,0.524758,1.971486,-21.094767,-10.884459,5.836564
28,180437896,-161.363998,-63.906536,169.620117,0.202635,0.477870,2.544480,-15.789490,-8.987185,1.595628
29,180454563,-161.559189,-63.855106,169.700607,0.128190,0.339087,2.192457,-5.996805,-4.625385,-1.054629
30,180471230,-161.733337,-63.884331,169.857880,-0.554511,0.348514,1.437449,-0.597698,-0.663996,-4.515929
31,180487897,-162.008041,-63.948677,170.155746,-0.708915,0.261724,1.022287,0.947241,0.203154,-8.686741
32,180504564,-162.392456,-64.015137,170.577103,-0.561422,-0.027835,0.915852,1.032557,-0.620955,-11.793708
33,180521231,-162.708313,-64.139824,171.026047,-0.150943,-0.429348,0.952276,6.654216,2.576108,-13.493127
34,180537898,-162.888657,-64.341759,171.462769,0.206459,-0.628951,0.713488,14.155593,7.175941,-14.479267
35,180554565,-163.021378,-64.571922,171.809174,0.081930,-0.216152,0.162178,12.167938,9.543427,-12.637657
36,180571232,-163.110687,-64.827568,172.092545,0.116365,-0.195236,-0.283491,11.389811,11.528875,-11.442144
37,180587899,-163.162750,-65.066582,172.316788,-0.222824,-0.108768,-0.661679,10.440242,11.038516,-9.635330
38,180604566,-163.133942,-65.308853,172.463058,-0.286594,-0.219218,-0.731817,11.070518,11.813043,-7.763473
39,180621233,-162.945892,-65.550461,172.481415,-0.086878,-0.232976,-0.728604,13.661581,12.698529,-4.692905
40,180637900,-162.566330,-65.801079,172.352402,0.095643,-0.241170,-0.532958,17.094053,14.270671,-1.439013
41,180654567,-162.014359,-66.020866,172.037933,0.203300,0.163262,-0.437182,17.269156,13.870857,3.295598
42,180671234,-161.410187,-66.212357,171.600510,0.187895,0.293992,-0.370726,13.627942,13.208982,6.456363
43,180687901,-160.833191,-66.347588,171.073059,-0.096087,0.282786,-0.291414,7.020671,10.762036,9.394239
44,180704568,-160.354553,-66.432846,170.511978,-0.105585,0.173896,-0.146036,-0.752681,8.272132,10.991588
45,180721235,-159.932571,-66.455887,169.935028,0.144051,0.039568,0.073844,-5.036369,4.966530,12.516851
46,180737902,-159.520538,-66.435890,169.363205,0.399269,-0.215168,0.375719,-5.352379,2.590246,13.252475
47,180754569,-159.066208,-66.414986,168.792969,0.487752,-0.217584,0.585202,-2.721748,2.632007,13.217487
48,180771236,-158.595978,-66.411377,168.275314,0.492020,-0.331354,0.624058,1.125275,3.257790,11.639895
49,180787903,-158.131943,-66.411102,167.800201,0.453247,-0.243112,0.585428,3.093049,3.160615,10.582231
50,180804570,-157.702148,-66.417259,167.405396,0.390361,-0.143638,0.430806,5.454924,2.879156,8.613688
51,180821237,-157.358292,-66.437004,167.124588,0.309712,-0.354142,0.458072,6.563377,2.643481,5.743514
52,180837904,-157.027817,-66.471283,166.906387,0.258225,-0.572859,0.664825,9.201065,2.896791,3.991901
53,180854571,-156.679810,-66.513954,166.685867,0.226034,-0.306459,0.712440,10.121881,3.402860,3.811344
54,180871238,-156.406357,-66.568626,166.522537,0.420590,-0.135028,0.799198,8.791966,3.537609,2.236432
55,180887905,-156.205627,-66.628700,166.418320,0.696504,-0.124807,0.947435,7.679719,3.272734,0.789019
56,180904572,-156.112000,-66.694778,166.396942,0.507525,0.090744,0.668906,5.814424,2.812166,-1.176494
57,180921239,-156.196304,-66.747604,166.509674,0.240430,-0.051793,0.545077,2.528940,0.797855,-3.763864
58,180937906,-156.412460,-66.782112,166.736008,0.052912,-0.100804,0.473310,0.883171,-1.276076,-5.775768
59,180954573,-156.705551,-66.813446,167.043869,0.344713,-0.044470,0.507997,0.767568,-2.186672,-7.464067
60,180971240,-156.990799,-66.844513,167.421738,0.645941,-0.005960,0.572934,5.095463,-2.812673,-8.970737
61,180987907,-157.177841,-66.883484,167.782013,0.784929,-0.015829,0.537944,10.030267,-2.169461,-8.773624
62,181004574,-157.251236,-66.945877,168.108643,0.667466,-0.025795,0.398835,14.998223,-0.535716,-8.574654
63,181021241,-157.270615,-67.018066,168.406189,0.620114,0.047650,0.283564,16.640173,0.285422,-8.151559
64,181037908,-157.313293,-67.088341,168.691025,0.492218,0.107646,0.076231,14.550840,0.308934,-7.814520
65,181054575,-157.380203,-67.148994,168.967087,0.440458,-0.057750,0.026463,12.617178,-0.126911,-7.385736
66,181071242,-157.471756,-67.191437,169.218048,0.572354,0.009616,0.078735,9.757116,-0.895548,-6.413102
67,181087909,-157.557220,-67.222389,169.408112,0.740504,-0.004762,0.167998,6.756854,-0.977534,-4.832809
68,181104576,-157.558289,-67.242950,169.502274,0.892031,0.083636,0.181800,6.517864,-0.694079,-2.533507
69,181121243,-157.535355,-67.240654,169.534607,0.909951,0.212390,0.045093,4.536311,-1.408391,-0.682758
70,181137910,-157.584793,-67.225876,169.577515,0.531181,0.074778,-0.127125,0.778901,-2.193728,-0.622990
71,181154577,-157.637177,-67.198471,169.585342,0.465973,-0.039360,-0.040548,-1.337457,-2.579634,0.416827
72,181171244,-157.644760,-67.162079,169.580261,0.454776,-0.163767,-0.026813,0.634459,-2.966271,0.899934
73,181187911,-157.596008,-67.118141,169.546890,0.537381,-0.048076,0.063527,2.452538,-3.125403,1.679521
74,181204578,-157.471619,-67.071938,169.476639,0.696904,0.025585,0.141844,4.951095,-2.921974,2.533410
75,181221245,-157.280701,-67.021996,169.377899,0.633289,0.121119,0.137989,7.371202,-2.861093,3.242831
76,181237912,-157.119461,-66.961578,169.306442,0.404790,0.090483,0.078147,7.098375,-3.674335,2.906907
77,181254579,-156.990494,-66.890709,169.268097,0.429792,-0.017696,0.199402,6.992621,-4.545218,2.446007
78,181271246,-156.920334,-66.798805,169.302200,0.410996,-0.057211,0.141434,7.462141,-6.369278,1.375793
79,181287913,-156.896362,-66.692772,169.374435,0.320834,0.151484,0.086724,6.791978,-7.499464,0.877402
80,181304580,-156.889618,-66.587975,169.473572,0.369701,0.008201,0.210251,7.237184,-7.686181,0.255532
81,181321247,-156.859665,-66.478264,169.547043,0.329366,0.055211,0.294888,7.210638,-7.718723,0.928454
82,181337914,-156.831741,-66.382881,169.629852,0.372994,-0.093981,0.363624,7.600553,-7.018778,0.380662
83,181354581,-156.829376,-66.290932,169.723038,0.246514,-0.065139,0.242289,6.633620,-6.930042,0.064410
84,181371248,-156.868179,-66.210526,169.824371,0.237358,0.012768,0.102246,4.607681,-6.373018,-0.398598
85,181387915,-156.956696,-66.147278,169.955368,0.255149,0.005382,0.133173,3.249272,-5.709366,-1.475996
86,181404582,-157.029251,-66.090065,170.071442,0.228188,-0.059964,0.244435,3.386621,-5.234212,-1.297898
87,181421249,-157.060471,-66.044312,170.171890,0.224358,-0.049295,0.186089,5.007584,-4.451667,-1.226067
88,181437916,-157.029800,-66.004585,170.255020,0.105390,-0.144384,0.121506,7.767161,-3.959635,-0.980864
89,181454583,-156.912003,-65.967758,170.275360,0.106625,0.009846,0.019707,9.553471,-3.201320,0.361683
90,181471250,-156.806122,-65.936134,170.297943,0.191668,-0.051132,-0.017602,8.961214,-2.933884,0.191846
91,181487917,-156.700027,-65.909653,170.315598,0.217702,-0.213641,0.111272,8.702718,-2.604697,0.184098
92,181504584,-156.604218,-65.875587,170.300461,0.199147,-0.157189,0.148040,6.289373,-2.700412,1.102774
93,181521251,-156.514725,-65.844147,170.253418,0.286120,-0.073019,0.162727,4.164209,-2.246836,1.761904
94,181537918,-156.368134,-65.814293,170.163910,0.257520,-0.029104,0.154544,5.266644,-1.733199,2.682297
95,181554585,-156.173660,-65.775131,170.033844,0.206756,0.068281,0.068796,5.921164,-1.835560,3.825571
96,181571252,-155.975327,-65.723732,169.903122,0.149426,0.082585,-0.018269,6.119036,-2.484266,4.146883
97,181587919,-155.723312,-65.671829,169.745224,0.211490,-0.042541,0.105566,7.857717,-2.218278,4.782578
98,181604586,-155.462860,-65.616371,169.573746,0.248766,-0.009391,0.209012,7.624666,-2.248898,5.190037
99,181621253,-155.207169,-65.563217,169.420670,0.391082,-0.012205,0.394547,8.348723,-2.285460,4.730789
100,181637920,-154.955551,-65.492180,169.261749,0.303202,0.160015,0.466969,7.790329,-3.172377,5.329012
101,181654587,-154.734406,-65.429031,169.109192,0.386265,0.186137,0.423597,6.313948,-2.781373,5.002027
102,181671254,-154.596344,-65.356369,168.996170,0.315485,0.281382,0.478638,3.490301,-3.700152,4.368855
103,181687921,-154.492325,-65.278343,168.885559,0.281514,0.254269,0.436516,1.582231,-4.002651,4.466875
104,181704588,-154.426392,-65.204094,168.782166,0.191452,0.385120,0.448861,-0.304202,-3.864957,4.218085
105,181721255,-154.379150,-65.150238,168.671570,0.151910,0.355776,0.498878,-1.816818,-2.677942,3.864662
106,181737922,-154.279831,-65.136002,168.530731,0.114652,0.181728,0.596638,-0.334656,-0.194938,3.527509
107,181754589,-154.074692,-65.183022,168.345627,0.064094,0.060355,0.635133,3.603637,3.606160,2.928435
108,181771256,-153.784058,-65.263039,168.109070,-0.054999,0.021236,0.574379,5.922996,5.959942,3.191439
109,181787923,-153.452881,-65.382660,167.868179,-0.029328,-0.143135,0.521142,8.111988,8.145463,2.173923
110,181804590,-153.192245,-65.536911,167.704742,-0.012077,-0.242863,0.292900,8.091678,9.130133,-0.558869
111,181821257,-153.059189,-65.720444,167.641785,0.015621,-0.121970,0.151713,5.917887,9.560476,-3.632638
112,181837924,-152.979156,-65.928268,167.619308,0.211869,-0.397742,0.161766,4.942786,10.395657,-5.209933
113,181854591,-152.888153,-66.145851,167.597534,0.300093,-0.522280,0.272437,5.638556,10.893465,-5.513022
114,181871258,-152.718781,-66.377884,167.541656,0.323106,-0.525561,0.238864,8.465958,12.031313,-5.211818
115,181887925,-152.469284,-66.605721,167.438873,0.149501,-0.344503,0.021131,10.686248,12.298285,-4.159775
116,181904592,-152.250595,-66.812119,167.339783,0.062209,-0.210850,-0.174894,9.032576,11.090556,-3.715202
117,181921259,-152.184189,-66.983650,167.316147,0.072402,-0.130000,-0.318912,4.052564,8.394571,-4.359449
118,181937926,-152.330475,-67.109871,167.394333,0.274705,-0.366765,-0.256809,-3.087265,4.878452,-5.198034
119,181954593,-152.579239,-67.185150,167.493332,0.506157,-0.347137,-0.004000,-8.081487,1.966191,-4.189547
120,181971260,-152.723328,-67.253319,167.487137,0.488634,-0.252921,0.087526,-7.615913,2.730782,-1.809679
121,181987927,-152.749954,-67.317368,167.377579,0.297407,-0.024404,-0.024335,-6.292234,3.607671,0.438803
122,182004594,-152.712997,-67.353394,167.221100,0.000506,-0.012489,-0.142758,-5.076271,2.609819,2.167449
123,182021261,-152.570618,-67.347855,167.006104,-0.367047,0.195555,-0.272723,-1.991119,1.019814,4.506190
124,182037928,-152.422714,-67.291405,166.770905,-0.363912,0.274945,-0.192573,-2.774842,-1.463164,6.334394
125,182054595,-152.210617,-67.210587,166.526779,-0.169423,0.094476,0.119862,0.588772,-2.636604,7.214036
126,182071262,-151.955811,-67.084961,166.278290,0.091578,0.424785,0.189236,2.921981,-4.922737,8.590316
127,182087929,-151.655991,-66.923462,166.059921,0.252794,0.649015,0.248155,7.299874,-7.095786,9.036878
128,182104596,-151.302307,-66.735260,165.877167,-0.168618,0.609683,0.075081,12.513092,-8.833652,9.131611
129,182121263,-151.074326,-66.466454,165.826385,-0.564699,0.385138,-0.143631,12.255733,-14.521513,8.785426
130,182137930,-151.158951,-66.067917,166.074356,-0.335647,-0.546266,0.131339,9.916963,-24.802725,6.259984
131,182154597,-151.211288,-65.653526,166.562164,0.175935,-1.520861,0.842114,24.942856,-28.531256,1.446952
132,182171264,-151.150345,-65.239166,167.241486,0.635735,-1.118858,0.997851,42.102551,-30.924644,-2.911077
133,182187931,-151.155151,-64.810417,168.200027,0.461928,-0.880197,0.922508,53.215199,-35.230999,-8.918152
134,182204598,-151.268112,-64.392944,169.442810,-0.216911,-1.130968,1.165161,61.951813,-38.331379,-16.034489
135,182221265,-151.798080,-63.866901,170.921005,-1.160183,-0.240094,1.394267,49.371410,-47.175152,-19.046389
136,182237932,-153.311111,-63.032120,172.674011,-2.093430,1.467428,2.633496,4.679527,-67.100159,-18.711935
137,182254599,-156.141083,-61.776112,174.725555,-2.016097,3.954054,3.781557,-59.327080,-93.476929,-19.454159
138,182271266,-158.935928,-60.396885,176.662949,-2.952995,8.251765,4.441855,-64.547852,-98.933907,-20.371017
139,182287933,-161.639679,-58.988567,178.700058,-7.043914,12.375990,4.162229,-55.303833,-101.335991,-29.578766
140,182304600,-164.694153,-56.920696,-179.114243,-12.116795,16.927982,2.137345,-70.669731,-139.890961,-30.640690
141,182321267,-167.320023,-54.446686,-176.936874,-16.944693,19.597485,3.524874,-48.169590,-162.848938,-35.475662
142,182337934,-169.305481,-51.750679,-174.947845,-20.051888,20.723364,5.636840,-22.170033,-173.966125,-37.234631
143,182354601,-171.057541,-48.743946,-173.467743,-22.934246,20.004427,4.141769,-35.261940,-188.546906,-24.953363
144,182371268,-172.623184,-45.348839,-172.834091,-24.580009,17.877224,-0.408237,-64.457726,-206.498108,3.571199
145,182387935,-173.684296,-41.386059,-173.330490,-22.429447,15.884697,-5.070032,-82.399796,-234.748657,50.191803
146,182404602,-173.861099,-36.588711,-175.246246,-17.811472,14.375166,-11.038541,-81.167793,-277.763092,120.423492
147,182421269,-173.129974,-30.835258,-178.544281,-8.964009,9.649723,-13.631306,-64.217331,-325.646393,203.056824
148,182437936,-172.428162,-23.456734,176.976120,5.578861,4.525954,-10.939205,-78.809044,-410.365692,293.360870
149,182454603,-171.695602,-15.100386,171.455795,21.366848,-6.211670,-6.498450,-63.719963,-454.476593,379.354828
150,182471270,-171.225281,-6.672956,165.502731,39.691536,-31.078907,0.529034,-37.520512,-448.943542,422.364075
151,182487937,-169.998474,-0.342716,158.853348,41.926460,-55.728630,6.057422,50.776543,-310.700989,455.064270
152,182504604,-164.671295,0.473282,151.663284,27.322039,-42.883266,5.825020,321.261566,45.675114,431.815887
153,182521271,-157.568832,-1.326228,147.884552,23.669779,-16.237726,1.523220,425.715546,174.513840,179.704559
154,182537938,-153.505585,-4.066578,148.905457,19.973677,-6.661508,-2.529204,248.064407,123.352890,-123.853226
155,182554605,-155.428284,-7.443403,151.964493,14.430882,-17.207932,1.966029,-95.433495,103.140984,-252.184433
156,182571272,-159.292923,-11.816850,154.458542,15.935585,-22.098301,5.176281,-205.274704,184.521927,-237.317139
157,182587939,-162.183868,-16.833185,156.208542,16.726763,-20.168201,-0.168312,-145.992828,249.778793,-195.491089
158,182604606,-162.869049,-22.440815,157.866333,13.332944,-16.483252,-3.986995,-6.338109,292.059174,-190.580063
159,182621273,-161.962982,-28.398069,159.371429,7.646293,-12.116260,-4.325123,94.343872,315.405884,-185.987732
160,182637940,-160.905869,-33.784508,160.657120,1.894574,-6.964198,-3.622715,104.449409,284.673889,-165.821472
161,182654607,-160.525864,-38.079044,161.806915,-2.179831,-2.359106,-0.824105,64.488174,224.099075,-138.153580
162,182671274,-160.783173,-41.560070,162.637512,-4.340743,0.971345,1.643515,17.688431,183.704758,-105.650612
163,182687941,-161.896118,-44.374996,163.431656,-5.366586,3.413171,1.530633,-33.072372,148.156998,-87.421524
164,182704608,-163.607880,-46.653759,164.173889,-7.459908,5.794340,1.689281,-69.697906,120.602753,-70.678879
165,182721275,-164.252502,-48.912735,164.089340,-8.987765,6.794447,0.764364,-41.192051,130.435516,-34.555878
166,182737942,-163.748535,-51.260258,163.416138,-9.356735,7.349849,-1.076798,0.506086,141.751923,-14.200209
167,182754609,-162.922989,-52.879230,162.149689,-9.536626,6.862950,0.773252,-9.129493,105.624100,16.626001
168,182771276,-161.945953,-53.979710,160.412506,-8.613361,6.051638,1.812157,-23.795946,80.823013,39.036488
169,182787943,-160.403809,-55.292747,158.073425,-5.405475,8.623177,4.429641,-20.619030,99.868332,51.240044
170,182804610,-157.845322,-56.850471,155.297211,-2.871244,9.254714,2.966198,16.608070,119.516785,53.381390
171,182821277,-155.319809,-58.423805,152.798950,-2.427888,9.395417,0.440331,26.247160,117.563911,35.962177
172,182837944,-152.849411,-59.948578,150.472305,-3.317195,6.605917,0.664017,29.678532,112.579529,24.223139
173,182854611,-150.151199,-61.258663,147.949905,-2.924125,4.175381,1.889863,31.390427,103.556358,27.689486
174,182871278,-148.213760,-62.504017,146.010574,-1.027128,4.294121,1.484932,14.991313,91.286140,8.742034
175,182887945,-147.587982,-63.517063,144.993134,-0.846752,3.918778,1.715506,-15.471803,65.237251,-8.890527
176,182904612,-147.831985,-64.206207,144.600372,-1.617924,3.023781,0.897727,-34.409515,39.518360,-13.358889
177,182921279,-148.700836,-64.593246,144.701340,-2.542041,2.822066,-0.751225,-45.280029,17.388142,-14.476556
178,182937946,-150.249527,-64.688858,145.629715,-2.467514,2.325584,-0.646320,-41.199879,-8.173841,-23.490206
179,182954613,-149.342453,-64.900635,144.696686,-1.909294,-0.607869,1.080296,5.157649,21.964090,14.191423
180,182971280,-150.305450,-65.144867,145.867767,0.770907,1.978880,-0.704980,7.299259,-3.262508,-33.038227
181,182987947,-150.777252,-65.363213,146.431839,-0.275425,-0.557302,1.553656,3.814063,3.421944,-18.795738
182,183004614,-150.226700,-65.690544,146.407654,-0.968065,0.712018,-0.360458,33.095150,16.367680,-9.167421
183,183021281,-149.848663,-65.835526,146.433517,-1.301396,1.402697,-0.896371,25.481068,6.192583,-4.916997
184,183037948,-149.905029,-65.831787,146.632507,-1.080060,0.792116,-0.638148,8.894915,-3.679534,-4.132009
185,183054615,-150.593521,-65.755974,147.207001,-0.479105,0.496915,-0.391126,-8.486175,-11.996027,-10.029700
186,183071282,-151.705276,-65.616928,148.076218,-0.308591,0.179865,0.175965,-17.793955,-18.708548,-14.797286
187,183087949,-152.693420,-65.449036,148.789398,-0.853532,0.051821,0.377457,-18.955961,-18.214024,-10.996152
188,183104616,-153.391769,-65.246338,149.232574,-0.941642,-0.249735,0.381106,-16.350157,-16.913008,-4.390038
189,183121283,-154.112930,-64.967194,149.717041,-1.507542,-0.122635,-0.330256,-15.518018,-21.481459,-3.586452
190,183137950,-155.139969,-64.666740,150.441483,-1.717273,-0.230767,-0.443062,-20.901918,-25.266479,-9.008394
191,183154617,-156.072784,-64.408813,151.197235,-1.409815,-0.270315,-0.092773,-13.646987,-23.199671,-11.385930
192,183171284,-156.958191,-64.123917,152.093048,-1.057443,-0.188158,0.158663,-3.322285,-26.039873,-14.617356
193,183187951,-158.024139,-63.731110,153.282700,-0.817240,0.148834,0.629823,1.539825,-34.846439,-19.985407
194,183204618,-159.002411,-63.299549,154.703705,-1.028892,0.640777,1.474849,18.999678,-39.086037,-25.923035
195,183221285,-159.886658,-62.765778,156.349472,-1.688820,2.939451,2.532844,36.335995,-46.773811,-30.709852
196,183237952,-160.954361,-62.020210,158.471924,-3.485203,4.418690,3.310605,50.172443,-62.988079,-40.631256
197,183254619,-162.965210,-60.671520,160.926392,-6.272233,8.362293,2.012673,9.979951,-99.870689,-42.102207
198,183271286,-165.991760,-59.039898,163.744614,-5.230709,12.010707,3.982588,-33.946457,-118.111496,-55.623940
199,183287953,-169.089935,-57.363850,166.601944,-8.038613,17.346918,7.068037,-38.750465,-118.750191,-66.493393
200,183304620,-171.960220,-55.528282,169.527527,-15.598972,21.901705,9.412235,-24.483177,-125.679939,-77.518486
201,183321287,-174.035522,-53.479122,172.287903,-21.395250,24.677174,8.845703,11.789626,-134.855667,-80.383736
202,183337954,-175.339508,-51.198879,174.757278,-23.638659,24.808531,4.244052,40.537399,-145.742523,-77.360687
203,183354621,-176.109116,-48.386856,176.515198,-24.483517,22.295212,-1.005845,35.886730,-174.505524,-55.187321
204,183371288,-176.534775,-44.615917,176.799454,-21.536600,17.614220,-4.514036,-11.635189,-227.765549,2.952027
205,183387955,-176.938644,-39.437378,175.077774,-13.092639,10.914100,-7.317698,-91.845329,-307.073639,94.474075
206,183404622,-177.410828,-32.582283,171.571655,-0.325165,5.597615,-10.188329,-150.479797,-403.572998,190.462631
207,183421289,-177.399673,-24.497292,167.157532,10.562237,-2.397935,-11.975740,-124.403976,-475.104370,254.661469
208,183437956,-176.099747,-15.911947,162.416397,24.662376,-16.775627,-8.759659,-18.972944,-500.103546,296.021423
209,183454623,-173.104965,-7.505804,157.893860,36.147049,-44.450363,1.364538,125.686600,-478.107605,312.225616
210,183471290,-168.997513,-1.449615,152.348175,34.112835,-53.469593,12.455788,221.500275,-308.261414,384.379150
211,183487957,-164.214462,0.794579,145.548553,23.077349,-29.431299,-0.624198,285.674194,-37.430996,428.144989
212,183504624,-159.974747,0.826689,140.923157,15.000952,-13.067875,-7.621584,259.546082,82.452591,264.664978
213,183521291,-158.061386,0.137942,140.083221,8.254183,-4.150285,-0.380973,116.600044,55.607800,32.205898
214,183537958,-156.892822,-2.138460,141.851044,5.131648,-4.663895,-2.787318,73.332077,84.516266,-150.341248
215,183554625,-156.575211,-5.884506,144.318344,7.167799,-9.595302,-1.782837,30.784094,147.100952,-224.515594
216,183571292,-157.613220,-10.225782,147.004593,11.773374,-13.283389,-1.571099,-38.279549,176.765656,-248.461823
217,183587959,-159.130157,-14.747830,149.598251,12.921452,-14.759149,-1.907386,-55.938465,195.177216,-241.342285
218,183604626,-160.485184,-19.131931,152.152069,11.355642,-15.123305,-1.875625,-35.245564,195.262344,-228.468658
219,183621293,-161.398315,-23.323721,154.731537,9.596780,-12.060223,-2.938523,2.627825,189.606934,-218.595444
220,183637960,-161.900726,-27.472965,156.947601,7.919952,-9.217363,-1.959216,28.234810,197.492828,-192.505203
221,183654627,-162.627121,-31.466835,159.275421,4.189878,-5.689090,0.778176,26.479017,190.213196,-188.946625
222,183671294,-163.593948,-34.991371,161.169220,-0.483032,-3.913938,0.895258,5.599717,173.764679,-152.518234
223,183687961,-164.897919,-38.051815,162.977737,-2.679014,0.437882,-1.154333,-12.320741,152.078217,-133.919662
224,183704628,-166.572327,-40.448139,164.782654,-2.655047,1.499139,-1.977136,-30.608297,117.703651,-116.836288
225,183721295,-168.141541,-42.472496,166.421387,-1.689502,-0.183632,-0.714263,-27.721539,101.408157,-98.611076
226,183737962,-169.172379,-44.370537,167.680664,-0.839251,0.557872,1.085348,-8.590390,99.879738,-76.331261
227,183754629,-169.244675,-46.416229,168.350021,-2.125170,-1.013392,1.692589,25.576431,114.304482,-50.812401
228,183771296,-168.645462,-48.272091,168.536041,-3.891248,2.894513,-0.090940,45.480503,106.844101,-28.900955
229,183787963,-167.502090,-49.874115,168.338120,-5.395959,3.947603,-0.956169,60.952293,94.656036,-12.376472
230,183804630,-165.602921,-51.657963,167.568130,-4.729333,4.016280,-0.763754,79.488327,109.881821,3.408996
231,183821297,-162.891281,-53.568806,166.042709,-3.765777,2.790865,1.017100,91.293816,124.407417,22.247175
232,183837964,-159.079834,-55.553768,163.511627,-2.220337,3.420084,2.345697,106.261131,140.239761,44.344074
233,183854631,-154.160446,-57.567436,160.044357,-1.509871,4.922724,1.221533,122.847992,155.318207,57.188885
234,183871298,-148.433212,-59.191746,155.748627,-3.324182,5.781029,0.058879,125.438736,149.291840,71.633087
235,183887965,-142.433517,-60.404972,151.148819,-4.474080,5.230943,-0.497756,122.754005,137.619217,72.940346
236,183904632,-136.973709,-61.177719,146.738770,-3.502136,5.244626,0.225004,97.954071,117.790031,68.412148
237,183921299,-132.509613,-61.611477,142.956314,-1.668845,4.585477,2.081458,69.949089,94.427017,57.916870
238,183937966,-128.537155,-61.816490,139.466583,-0.573365,5.702807,2.378547,55.323620,82.346855,55.042610
239,183954633,-125.132744,-61.914547,136.317566,-1.204448,5.704957,1.924143,39.015648,73.775330,48.633858
240,183971300,-122.740646,-61.903168,133.726501,-2.993315,6.015151,0.997268,7.748709,59.298481,41.373608
241,183987967,-122.435295,-61.739315,132.239349,-3.574325,5.678010,0.935903,-58.948986,29.156193,30.926126
242,184004634,-123.230316,-61.592522,131.655624,-2.704626,4.343336,2.036354,-77.145096,8.137381,16.372881
243,184021301,-124.516823,-61.408245,131.579697,-1.868583,4.099371,2.784119,-79.807953,-5.414725,10.356404
244,184037968,-125.657860,-61.199909,131.591629,-1.417947,2.379681,3.375572,-66.450111,-8.521879,9.999673
245,184054635,-127.748268,-61.241451,132.533356,-0.368352,4.093183,1.760574,-74.513168,-21.379591,-18.282331
246,184071302,-130.545670,-61.303837,134.061737,-1.345948,3.101470,1.841537,-86.041077,-32.876972,-30.749010
247,184087969,-133.282455,-61.322308,135.721619,-2.315378,1.876735,2.147293,-75.449852,-35.894142,-32.776054
248,184104636,-135.217682,-61.378258,137.190628,-2.778487,1.457788,2.083690,-37.379688,-28.989027,-31.906040
249,184121303,-136.559601,-61.550201,138.614883,-3.182092,1.604670,2.504983,-4.054082,-22.072954,-36.503551
250,184137970,-137.971786,-61.829277,140.326019,-3.581673,1.477602,3.088058,7.042401,-21.811754,-47.135132
251,184154637,-139.147949,-62.317730,142.042480,-3.719511,1.295086,5.556043,21.810080,-11.027320,-55.561806
252,184171304,-140.518036,-62.955311,143.857605,-5.743303,3.720257,5.265865,15.902812,-4.134181,-62.933159
253,184187971,-143.253952,-63.424229,146.644119,-9.044373,6.572412,2.357942,-13.543766,-25.494354,-76.692650
254,184204638,-146.902695,-63.457272,150.385330,-10.414197,9.539708,-0.249855,-16.738337,-56.916294,-83.415054
255,184221305,-150.597412,-63.069809,154.837173,-12.676203,13.209815,-2.661116,18.282721,-83.290466,-90.649940
256,184237972,-154.911133,-62.057446,160.159256,-14.393621,14.461534,-1.895672,26.029989,-122.399193,-102.966827
257,184254639,-159.868896,-60.303818,165.893433,-16.871668,15.517042,0.904005,5.467813,-161.883636,-112.613670
258,184271306,-164.672943,-57.966667,171.374374,-17.780170,19.246368,3.644031,-4.424492,-185.927490,-117.948997
259,184287973,-168.885620,-54.793198,175.927200,-17.851732,24.375103,4.544140,-23.717764,-220.966873,-103.644958
260,184304640,-171.847076,-50.887184,178.634293,-18.974707,21.340664,3.150544,-46.680698,-248.579742,-57.442875
261,184321307,-174.527985,-45.699574,179.164780,-17.642199,12.895580,-2.458498,-135.494110,-312.761353,15.982226
262,184337974,-177.458313,-38.567200,177.452652,-10.779338,11.014665,-9.476253,-243.046219,-422.812286,106.046547
263,184354641,-178.692093,-30.294079,173.901520,2.596722,7.087786,-10.190394,-192.944260,-491.289490,192.533096
264,184371308,-177.658005,-21.922743,169.655685,19.685003,-5.186130,-2.350019,-48.781612,-495.697327,244.859741
265,184387975,-173.281952,-13.365422,165.309845,34.857792,-26.794262,3.276207,184.353683,-493.185028,288.517273
266,184404642,-168.382324,-4.765681,160.746246,37.822948,-50.358261,2.811632,251.563553,-467.256073,349.432831
267,184421309,-166.085007,1.760755,153.887054,33.014572,-45.502136,8.292746,128.156555,-291.617401,487.886932
268,184437976,-163.872772,4.012424,147.073959,13.957390,-27.843620,-5.089479,154.537567,-25.586342,429.310516
269,184454643,-162.393433,3.593180,143.798035,5.581933,-8.406564,-8.159093,103.142357,79.921349,180.348557
270,184471310,-159.670578,1.325951,145.852448,6.872302,-2.116874,-6.133508,159.407471,87.565086,-160.738983
271,184487977,-156.452911,-2.543781,149.682526,2.676497,-11.367085,1.270636,196.723099,128.400070,-299.985504
272,184504644,-155.250748,-7.519756,153.307983,12.610810,-14.043858,0.745428,92.502716,182.630661,-319.946838
273,184521311,-156.763733,-12.737637,156.805023,19.855865,-12.315586,-4.327956,-52.425777,200.886841,-316.093658
274,184537978,-159.080917,-17.671375,160.245529,22.812824,-10.249293,-5.441214,-83.402939,198.329025,-295.956696
275,184554645,-161.202240,-22.310619,163.838531,15.788197,-12.243435,-5.023567,-52.110004,191.882065,-285.190887
276,184571312,-163.352280,-26.604490,167.344727,11.787787,-12.366281,-3.939733,-40.457527,186.034439,-260.924652
277,184587979,-165.505035,-30.546560,170.731064,8.716213,-7.515519,-2.364658,-30.559462,178.884995,-235.468124
278,184604646,-167.733566,-33.924103,173.932007,2.486293,-4.638277,-0.681515,-29.874250,158.516052,-205.039093
279,184621313,-170.065750,-36.966022,176.862000,-3.350458,-0.062264,0.115265,-36.604015,150.497147,-175.778687
280,184637980,-171.556168,-39.836296,178.910431,-4.987219,2.218665,1.318737,-11.733768,153.610138,-122.687042
281,184654647,-171.602615,-42.727772,179.777588,-2.115825,3.205504,1.416977,32.864033,164.886520,-64.184753
282,184671314,-170.956131,-45.526810,-179.872025,-2.538350,3.546614,2.802501,54.745728,162.705109,-40.479076
283,184687981,-170.012619,-48.253227,179.867126,-4.171740,1.645782,3.108962,46.504467,162.092957,-16.589039
284,184704648,-168.166260,-51.070553,178.953247,-6.587929,2.350987,2.140122,70.295624,171.680832,2.765002
285,184721315,-165.487427,-53.486916,177.113525,-8.480598,5.343528,0.741144,74.722893,155.516632,32.630016
286,184737982,-162.413635,-55.283966,174.618423,-8.359666,6.432297,0.517935,64.044159,126.664413,53.886421
287,184754649,-159.217010,-56.719116,171.960831,-5.571841,8.335306,1.841208,60.934422,109.564514,55.835590
288,184771316,-156.881958,-57.821266,169.365067,-4.080634,6.749840,3.107693,10.435012,91.747139,53.312832
289,184787983,-155.068039,-58.755440,166.727631,-3.191617,6.013830,2.913951,-24.425171,83.996269,53.089897
290,184804650,-153.591339,-59.551437,163.923370,-4.089273,5.132970,1.238650,-54.485188,79.354027,57.008102
291,184821317,-152.162598,-60.060375,161.089554,-5.247445,5.124777,0.299347,-59.866055,65.097832,62.133671
292,184837984,-149.916153,-60.725861,158.104645,-3.785284,4.285786,-1.506117,-19.556150,76.706863,58.034813
293,184854651,-150.980804,-60.846310,157.776077,-2.114805,4.561156,-2.107249,-79.706573,9.973653,4.763539
294,184871318,-151.691711,-61.185066,157.703217,-1.228762,1.920977,0.287737,-45.097382,17.787767,-7.928183
295,184887985,-149.690552,-61.709816,156.088867,-1.398023,1.216160,0.868431,36.366627,49.052658,24.921774
296,184904652,-147.709747,-62.160656,154.567657,-1.128842,3.543126,-1.506967,39.686409,44.355442,22.603741
297,184921319,-146.040695,-62.508869,152.812271,-2.515990,2.349915,-0.641610,8.243266,43.152195,29.504475
298,184937986,-144.368652,-62.559765,150.916245,-2.228085,0.877759,-0.873908,0.762094,31.380209,41.313686
299,184954653,-144.501419,-62.228371,150.240494,-0.851474,1.482875,-0.598552,-42.512997,-6.315880,26.819044
300,184971320,-145.219742,-61.621025,149.838516,-0.257698,-0.409909,1.375003,-62.994564,-24.335760,30.228498
301,184987987,-145.882812,-60.922195,149.554230,-0.944273,-0.374872,1.375525,-53.359154,-31.005743,30.450293
302,185004654,-146.393738,-60.185162,149.082184,-2.363842,0.699634,0.542325,-53.935715,-30.032749,36.172611
303,185021321,-146.803253,-59.440243,148.608185,-2.984078,1.163436,-0.293721,-47.770527,-30.514000,36.513767
304,185037988,-147.154099,-58.768711,148.291122,-2.710627,1.682462,-0.301778,-35.992199,-29.534000,30.118303
305,185054655,-147.334808,-58.189045,148.117126,-1.910647,2.160109,0.404362,-18.358929,-27.373001,23.379889
306,185071322,-147.181793,-57.711895,148.042328,-1.526813,1.821023,1.173514,6.758681,-23.870495,17.460918
307,185087989,-146.463226,-57.360115,147.849274,-1.624022,2.641595,1.599613,34.721378,-15.340998,16.728914
308,185104656,-145.821472,-56.966976,147.832718,-2.315006,3.857554,0.917173,39.053711,-20.368061,13.566258
309,185121323,-145.575806,-56.572662,148.158340,-2.652022,3.530114,1.309111,32.464775,-26.656864,4.466947
310,185137990,-145.449677,-56.237164,148.782867,-1.583234,3.794900,2.459220,40.165459,-29.412592,-5.710338
311,185154657,-145.477402,-55.933784,149.617737,-1.339264,5.973000,3.444908,41.291210,-31.920767,-12.719230
312,185171324,-146.342865,-55.491901,150.891602,-2.298017,7.889307,3.934524,12.609647,-47.169338,-20.808409
313,185187991,-148.756378,-54.716797,153.132385,-4.571962,8.872663,4.140367,-33.137573,-81.587646,-39.957420
314,185204658,-152.644150,-53.550564,156.373627,-5.885444,9.465187,3.786774,-74.240273,-117.842262,-65.125618
315,185221325,-157.090393,-52.220211,160.096237,-6.217346,11.609976,5.248680,-87.213478,-130.555588,-88.113556
316,185237992,-161.920013,-50.702045,164.141586,-9.806335,13.374866,6.839113,-98.450264,-139.315659,-109.753998
317,185254659,-166.247116,-49.196201,167.842712,-13.938247,14.680695,7.052097,-88.170723,-127.127525,-112.619698
318,185271326,-170.136063,-47.507229,171.078674,-18.440794,16.539625,3.675096,-86.783691,-126.673195,-105.538994
319,185287993,-173.177383,-45.316448,173.509888,-21.177467,19.063356,-0.348771,-75.349854,-145.745575,-80.411575
320,185304660,-175.130722,-42.591087,175.136688,-21.789106,19.844637,-2.011859,-47.978256,-170.949203,-53.217163
321,185321327,-175.887894,-39.014423,175.254700,-18.941072,15.971866,-2.931965,-39.332157,-215.507553,11.496758
322,185337994,-176.150848,-34.223606,173.522263,-10.466282,9.221747,-3.021840,-76.323799,-282.100983,103.240448
323,185354661,-175.644211,-28.713949,170.387970,0.945479,2.475860,-2.624213,-66.370239,-319.331879,183.714752
324,185371328,-175.258774,-22.335854,166.358002,13.067739,-5.408256,-4.672060,-79.683586,-365.173248,247.965134
325,185387995,-173.939819,-14.820129,161.732269,19.031384,-17.264324,-6.940832,-8.043713,-425.065552,304.511780
326,185404662,-171.404358,-6.674819,156.555511,28.106226,-33.270226,-6.272857,95.240608,-446.594208,365.199677
327,185421329,-169.414307,0.801113,150.446182,38.228977,-44.619656,5.462273,101.743080,-381.963287,435.865326
328,185437996,-167.872559,4.793966,144.135483,13.909381,-33.601818,-1.465657,112.250099,-161.246384,417.965027
329,185454663,-166.640610,5.546071,140.465820,4.955687,-10.070910,-4.405176,95.102966,3.307795,223.797852
330,185471330,-165.639343,4.908217,141.870377,9.797552,-5.709726,-11.065928,53.762756,15.994814,-90.686249
331,185487997,-164.445984,3.027525,146.006363,3.244973,-11.580678,-0.787633,55.759384,44.022915,-268.337036
332,185504664,-164.113541,-0.345068,149.730576,5.188304,-13.166973,2.124031,16.063965,133.136627,-269.912994
333,185521331,-164.436920,-4.444072,152.589020,12.792909,-10.457000,-4.184637,-10.869250,189.191956,-231.665543
334,185537998,-164.098465,-8.761373,155.213974,14.966076,-9.781515,-2.019003,39.756645,205.825546,-220.902054
335,185554665,-163.068481,-13.142814,157.922104,14.155708,-12.379362,-0.516376,93.980270,206.006241,-227.404495
336,185571332,-161.793625,-17.635157,160.473450,12.646739,-10.725991,-3.113630,118.413696,211.353485,-222.163391
337,185587999,-161.039749,-21.881229,162.572067,11.832966,-6.473726,-1.498416,89.118301,202.673553,-193.605316
338,185604666,-161.092224,-25.750465,164.470871,7.653123,-5.723184,-0.070986,44.199032,184.739899,-174.004150
339,185621333,-161.636490,-29.382698,166.257095,4.014454,-5.140513,1.254486,18.296036,175.121597,-159.754776
340,185638000,-161.926147,-32.920307,167.828217,2.707074,-4.134192,2.837465,32.730671,175.369873,-143.084122
341,185654667,-161.552536,-36.302639,169.063583,0.960758,-1.020953,0.263090,65.846191,172.586914,-121.616684
342,185671334,-161.490250,-39.228405,170.097305,-1.721069,0.640182,-1.491733,43.056984,149.936295,-102.238190
343,185688001,-161.588913,-41.757599,170.853653,-2.209997,1.728733,0.160023,24.886671,131.993790,-80.883430
344,185704668,-161.829529,-44.021210,171.245148,-1.908849,2.397732,1.678409,2.892355,122.531204,-59.058414
345,185721335,-161.826584,-46.256023,170.691223,-1.029110,4.194181,2.291262,-22.039047,133.687332,-19.631538
346,185738002,-161.335678,-48.811901,169.435547,-2.333846,5.146203,1.038705,-24.783407,160.537155,-0.273902
347,185754669,-160.058975,-50.527054,167.173782,-3.902607,4.873669,-0.447835,-25.508520,125.112076,48.796497
348,185771336,-160.307617,-50.063576,166.033630,-3.810451,6.243505,-1.826285,-66.187302,-12.373791,50.464085
349,185788003,-161.085236,-49.926998,164.957764,-4.519546,3.651128,2.460493,-94.738388,4.954650,41.803665
350,185804670,-159.802704,-50.685097,162.864899,-2.530347,2.791053,3.345639,-18.311682,68.664536,60.283375
351,185821337,-157.463608,-51.481098,160.498703,-3.033316,5.788493,2.207782,31.240545,75.922745,65.591515
352,185838004,-154.680130,-52.245831,157.787048,-3.721508,5.654767,0.737185,40.394905,81.636261,73.169312
353,185854671,-152.835144,-52.477268,155.593262,-4.270914,5.306986,1.033091,7.837240,46.947910,65.900482
354,185871338,-152.059128,-52.524193,154.101318,-4.254557,4.078798,1.981265,-23.081745,26.654188,46.961864
355,185888005,-151.483688,-52.666286,152.674408,-3.899045,2.721151,2.198045,-32.105404,31.056427,41.744068
356,185904672,-151.146240,-52.913307,151.622665,-3.485571,2.792967,1.690994,-28.630831,30.262892,26.322592
357,185921339,-150.997223,-53.205128,150.747803,-3.402138,2.193846,1.487372,-31.631884,29.523325,19.101694
358,185938006,-150.942154,-53.517296,150.168091,-4.060764,2.543708,0.493747,-23.225550,25.386879,9.023239
359,185954673,-150.936142,-53.847530,149.746613,-4.507560,1.808322,-0.344124,-18.633337,23.527538,3.432145
360,185971340,-150.914261,-54.200836,149.380371,-3.998188,1.982161,0.078565,-15.088791,23.728338,0.946456
361,185988007,-150.953842,-54.616642,149.144043,-3.180609,1.806791,1.062965,-12.525465,24.742006,-4.939423
362,186004674,-150.778473,-55.117695,148.801468,-3.001786,2.068755,1.583941,-4.906617,30.943329,-4.336117
363,186021341,-150.373627,-55.710270,148.377014,-3.401475,2.381929,0.765168,4.705192,36.990940,-4.904985
364,186038008,-150.184875,-56.292381,148.024551,-3.836877,3.016586,-0.335855,-4.825724,35.112915,-7.075387
365,186054675,-150.471115,-56.812614,147.927521,-3.397005,2.840556,-0.279161,-20.650492,27.625742,-12.690462
366,186071342,-150.938080,-57.271400,148.021912,-2.312620,2.486112,0.655355,-21.883352,21.412493,-16.181532
367,186088009,-151.198227,-57.725548,148.179062,-1.608156,2.109915,1.341654,-6.274617,20.308052,-17.639771
368,186104676,-151.185333,-58.157204,148.348480,-1.008326,2.308534,1.152247,10.773081,19.004396,-17.230692
369,186121343,-151.249023,-58.521000,148.669144,-1.041656,2.710123,0.340825,13.937551,13.182307,-19.381319
370,186138010,-151.517426,-58.809410,149.185776,-1.102242,2.607571,0.168166,11.755854,6.379902,-22.455849
371,186154677,-151.971649,-59.077797,149.914886,-0.976342,1.900802,0.811601,11.606847,2.412333,-27.518688
372,186171344,-152.457581,-59.337322,150.812881,-0.680280,1.512859,1.569752,18.513165,-0.170517,-31.676542
373,186188011,-153.230835,-59.565495,152.072067,-1.103594,1.362810,2.134080,20.055792,-6.432651,-40.429543
374,186204678,-154.503265,-59.707218,153.866623,-1.306941,2.201543,2.801923,17.945784,-17.426924,-52.620823
375,186221345,-156.578476,-59.707664,156.538864,-1.964305,4.475340,4.087232,15.322343,-34.548294,-73.635353
376,186238012,-159.299484,-59.661121,160.058853,-3.379973,4.836627,6.053791,20.463451,-43.710018,-97.750587
377,186254679,-162.576248,-59.535316,164.181564,-6.312374,7.829213,9.821920,18.155703,-49.097137,-115.837799
378,186271346,-166.512665,-59.141987,168.861542,-14.103641,11.304661,9.887474,6.787726,-61.974010,-131.706070
379,186288013,-171.170990,-57.839279,174.140488,-19.207666,17.628410,4.417382,-7.991385,-109.737556,-147.251862
380,186304680,-175.089310,-55.662205,178.963577,-22.679941,23.506792,1.896338,8.406651,-149.673416,-141.871841
381,186321347,-177.914307,-52.631104,-177.489960,-24.607731,21.275896,-0.480610,4.473276,-190.181366,-113.277039
382,186338014,-178.966843,-48.768616,-176.158447,-24.558401,16.911461,-4.609899,0.150690,-234.166153,-44.244473
383,186354681,-178.770676,-43.738201,-177.572189,-17.957468,10.139824,-8.971575,-48.076023,-301.747314,64.659607
384,186371348,-177.757629,-37.077351,178.731430,-5.302395,7.499564,-8.276102,-81.676926,-395.361694,181.018158
385,186388015,-176.503601,-29.786091,174.037750,8.219934,3.114371,-5.672332,-78.680557,-426.059509,256.778076
386,186404682,-174.920578,-21.795649,168.816238,20.383913,-2.379183,-6.630018,-40.177341,-457.790680,317.326752
387,186421349,-173.472702,-12.414595,163.254379,31.329006,-21.100636,-7.623697,-10.186582,-528.390137,374.518585
388,186438016,-172.770569,-3.040707,157.250137,43.942577,-44.099773,2.002696,-5.056301,-516.199341,422.079315
389,186454683,-171.308304,2.358987,150.699921,27.022512,-46.351521,2.782702,86.648582,-267.160767,434.158020
390,186471350,-168.350052,2.909984,144.810257,9.928034,-17.511112,-7.170701,194.959122,28.765049,353.294067
391,186488017,-165.920441,1.734521,142.726089,8.377117,3.758473,-7.451427,152.194107,95.528145,106.078125
392,186504684,-163.664932,0.164443,144.823761,8.856303,-3.414721,-7.514542,134.602295,56.843193,-146.194061
393,186521351,-161.649994,-2.807253,148.743744,4.702047,-8.817421,-0.928496,127.627975,98.998062,-277.652863
394,186538018,-160.686493,-7.719474,152.614258,6.749505,-13.577189,-0.842306,80.438637,203.149597,-314.086609
395,186554685,-160.601624,-12.797610,156.400101,15.726391,-10.653185,-2.874821,46.916603,212.225174,-311.950165
396,186571352,-161.128952,-17.451809,159.474182,16.677923,-10.595848,-0.765500,17.883270,204.360001,-259.830536
397,186588019,-160.947678,-22.964584,162.262848,15.986555,-12.964797,-1.790555,70.038315,260.709625,-256.074493
398,186604686,-161.142242,-28.116423,164.987976,12.314458,-13.799605,-1.940214,60.200550,243.358795,-240.033020
399,186621353,-161.429321,-32.410748,167.043365,9.280890,-9.079634,0.685604,46.287243,208.835953,-183.650589
400,186638020,-161.221649,-36.016823,168.298782,2.968606,-4.674749,1.359943,56.147720,184.031769,-128.386948
401,186654687,-161.296265,-39.077866,169.079773,-0.831336,-0.881787,0.623505,25.413065,160.995117,-94.291809
402,186671354,-162.146667,-41.519489,169.673737,-1.802626,1.317915,0.364834,-26.632545,129.585861,-71.855270
403,186688021,-163.821075,-43.366482,170.102509,-3.081207,0.784474,1.375379,-81.755981,99.418869,-50.682091
404,186704688,-165.196167,-45.030891,170.102798,-4.873665,0.260009,3.760573,-81.147560,95.234451,-26.780237
405,186721355,-165.694794,-46.636158,169.684921,-5.358797,1.830876,4.326183,-46.559395,96.609535,-7.387272
406,186738022,-165.416473,-48.018608,168.932495,-5.257623,4.930345,3.679905,-15.151190,86.942673,8.853205
407,186754689,-164.981064,-49.221882,168.085205,-5.370688,6.547628,3.055445,-10.675777,77.365921,13.963912
408,186771356,-164.954453,-50.233044,167.164474,-6.025079,6.124890,2.263117,-39.197540,66.829887,18.675196
409,186788023,-165.264969,-51.120907,166.154953,-4.794348,5.068823,2.986353,-64.126099,60.315216,23.333904
410,186804690,-165.275146,-52.078716,164.994019,-3.924802,4.060152,3.289221,-53.836376,65.545273,27.167980
411,186821357,-164.779709,-53.179314,163.727951,-3.703764,4.112543,1.652407,-29.278797,74.662720,27.419724
412,186838024,-164.067001,-54.308086,162.619995,-3.979688,4.898053,0.400080,-9.477798,74.749374,19.628155
413,186854691,-163.422195,-55.397247,161.767792,-4.138319,4.811843,0.195204,-1.750460,69.926193,9.914069
414,186871358,-163.273987,-56.366161,161.063721,-3.464844,3.901620,0.387235,-24.705719,61.432278,5.993984
415,186888025,-163.666367,-57.260933,160.418396,-2.635532,3.602790,0.836658,-54.568291,56.441826,4.998612
416,186904692,-164.432983,-58.111153,159.886276,-3.047527,3.531797,-0.282131,-71.598946,52.681927,2.350216
417,186921359,-165.383652,-58.940102,159.527847,-3.700346,2.840266,-0.788303,-73.998909,49.882366,-2.146366
418,186938026,-166.072723,-59.849232,159.268829,-3.087573,2.241155,-0.507228,-53.338158,53.750004,-5.814682
419,186954693,-166.122955,-60.869007,158.979095,-2.198363,2.046173,-0.280022,-16.741102,60.390095,-6.389241
420,186971360,-165.643188,-61.896679,158.611038,-2.093626,1.743341,-0.043099,10.780130,61.304638,-4.813730
421,186988027,-164.924973,-62.724285,158.140884,-1.805164,1.317207,0.332280,19.495544,50.282940,0.032381
422,187004694,-164.540207,-63.125961,157.723846,-1.488857,2.261754,-0.574754,2.187208,25.172932,4.609855
423,187021361,-164.648361,-63.371628,157.488495,-1.552602,1.802028,-0.591120,-17.715162,14.826010,2.182315
424,187038028,-165.149719,-63.405178,157.367538,-1.453294,1.261093,-0.200928,-35.182774,1.712902,2.586158
425,187054695,-165.750427,-63.341393,157.303040,-1.124598,0.925399,0.335289,-38.119015,-4.346728,2.612816
426,187071362,-165.954620,-63.361465,157.202026,-1.280346,1.070433,0.330054,-16.284300,0.753347,2.314968
427,187088029,-165.619461,-63.510994,156.990875,-1.709646,1.614695,0.428720,10.161071,9.007000,3.262952
428,187104696,-164.837448,-63.667465,156.767288,-2.296370,3.303998,0.018472,36.287827,9.519166,3.351470
429,187121363,-164.373642,-63.544407,156.816437,-3.372069,4.374387,-0.421241,31.855118,-8.551947,0.673431
430,187138030,-164.696075,-63.394089,157.451904,-3.146576,3.723194,1.103273,16.151911,-14.317160,-14.028029
431,187154697,-164.906006,-62.952221,158.065796,-2.333313,4.534587,2.652080,21.660912,-31.030399,-9.107771
432,187171364,-165.423370,-62.485500,159.356430,-3.623357,6.168650,4.399908,39.171318,-37.246891,-27.152514
433,187188031,-166.673462,-61.798748,161.262115,-6.046517,7.254329,4.806641,27.476748,-53.958084,-41.925278
434,187204698,-168.475082,-60.925781,163.744659,-7.586958,8.102056,5.482734,24.033934,-67.597084,-58.445801
435,187221365,-170.776520,-59.939575,166.678528,-10.042652,8.518384,5.455776,16.431845,-74.932251,-74.779045
436,187238032,-173.823837,-58.618992,169.723373,-11.605308,10.089200,3.890036,-24.359224,-92.108322,-81.859535
437,187254699,-177.201950,-57.049580,172.644318,-12.626603,11.489217,3.805865,-52.890289,-102.268501,-85.632736
438,187271366,-179.947021,-55.433319,175.434357,-14.019374,15.061267,5.441618,-24.083851,-100.365463,-90.561638
439,187288033,177.714127,-53.480698,177.851242,-14.521094,15.449576,6.616730,-20.884233,-116.612862,-86.536629
440,187304700,176.457092,-51.193432,179.487976,-16.697603,13.465106,5.698225,3.773879,-135.146820,-66.871803
441,187321367,176.980606,-48.456196,179.747238,-18.337767,11.685867,0.136950,44.740200,-164.555176,-19.381989
442,187338034,179.164047,-44.852318,178.364975,-17.100462,9.969572,-7.716251,72.094543,-219.193893,49.667831
443,187354701,-177.611847,-39.931553,175.468033,-12.183916,8.473388,-14.723589,77.547348,-294.595398,132.428558
444,187371368,-174.541565,-33.092731,171.396942,-0.818708,4.424279,-17.638901,39.992805,-396.926147,224.054840
445,187388035,-171.502808,-24.534172,166.804962,18.524755,-8.436265,-7.852190,50.464787,-481.253448,302.192383
446,187404702,-168.095123,-15.094610,162.032852,35.826096,-29.326866,-1.455003,108.180313,-510.519775,365.670685
447,187421369,-164.945175,-6.474649,156.773956,38.348225,-44.891903,3.756413,130.841919,-431.437714,422.182953
448,187438036,-162.551697,-0.787107,150.153610,31.205673,-33.082012,2.029682,119.556984,-217.374374,476.123474
449,187454703,-161.081879,2.178365,144.705170,18.354889,-18.480118,-4.350502,93.447350,-67.962769,366.039581
450,187471370,-161.774551,3.606961,142.552094,7.475270,-3.953969,-3.061149,-33.660400,-41.188786,149.551727
451,187488037,-163.541519,4.512956,143.789307,6.006232,3.615395,-8.661371,-109.890800,-74.991661,-54.525509
452,187504704,-164.360107,4.200679,146.121185,3.367735,-1.994074,-5.258942,-58.353420,-21.593931,-139.292130
453,187521371,-164.582581,2.114276,148.524139,3.365089,-4.095479,-0.672450,-19.906199,81.025223,-172.262024
454,187538038,-165.712952,-0.976557,150.867340,9.749534,-7.305392,-1.222501,-67.814667,142.164932,-183.478119
455,187554705,-167.624084,-4.522174,153.781799,12.625346,-7.147312,-1.782236,-104.842308,165.667725,-219.078583
456,187571372,-169.791367,-7.208904,156.347855,12.065027,-8.529792,0.402499,-112.883934,127.065605,-181.816498
457,187588039,-171.067856,-10.165397,158.660904,10.528272,-9.981627,0.802548,-54.233673,151.093948,-164.829697
458,187604706,-171.660217,-13.204989,161.257767,7.792986,-8.403661,0.774792,-2.611617,156.379547,-178.293716
459,187621373,-171.831070,-15.725935,163.449402,4.526023,-7.574624,1.441050,23.947956,130.412399,-147.782410
460,187638040,-171.549454,-18.035938,165.187576,3.942169,-7.307518,2.013343,48.516773,121.734917,-118.838654
461,187654707,-170.992996,-20.785208,166.710831,2.435356,-7.027296,2.427032,65.085670,148.978607,-110.303787
462,187671374,-170.465103,-23.866076,167.981995,1.274575,-5.039334,2.110350,61.963230,170.084076,-99.487343
463,187688041,-169.985046,-26.883133,168.980667,-0.804811,-2.537076,1.750013,55.795383,168.216202,-84.169525
464,187704708,-170.166092,-29.394142,169.831940,-1.764797,-1.437093,3.099893,14.549438,139.652298,-70.415756
465,187721375,-170.687637,-31.930691,170.476959,-1.143506,-2.659280,5.952757,-10.228469,143.541443,-58.221348
466,187738042,-171.078201,-34.794800,170.761475,-1.018960,-2.071384,3.831149,-12.719487,166.416824,-41.393734
467,187754709,-171.418182,-37.825897,170.611465,-3.176671,0.054070,0.420949,-24.401464,179.848358,-20.590715
468,187771376,-170.898056,-41.070045,169.965256,-3.314804,0.250545,0.658961,7.886008,195.925461,-0.421527
469,187788043,-169.336594,-44.442097,168.704117,-2.026715,-0.270624,1.467357,43.613926,207.832657,19.926052
470,187804710,-166.583267,-47.977318,166.916092,-0.057744,-0.417474,2.817653,89.020126,221.898422,28.281204
471,187821377,-163.093307,-51.639347,164.456421,-0.565960,2.439621,2.385434,97.898521,235.926071,34.385300
472,187838044,-160.204376,-54.783649,161.609177,-4.749344,5.242133,0.011629,37.799271,210.201111,37.632439
473,187854711,-158.531387,-57.270435,158.924225,-9.146623,4.900761,0.238935,-31.893476,170.290237,31.596390
474,187871378,-157.683777,-59.324928,156.374435,-11.090131,6.057844,0.458141,-77.955276,143.290802,28.561056
475,187888045,-156.674133,-61.204956,154.042419,-9.730135,9.397183,-0.020549,-59.564522,129.815369,20.146513
476,187904712,-153.970322,-62.755890,151.398346,-10.412946,9.880761,0.299356,23.529909,114.586105,28.806437
477,187921379,-152.956772,-64.178665,150.566299,-7.327811,11.651009,-2.258095,17.517811,85.258057,-18.243292
478,187938046,-151.756775,-65.313408,150.283981,-4.804933,9.356598,-0.141680,58.053085,62.582954,-25.229916
479,187954713,-150.719513,-66.230408,150.245926,-0.417208,8.236290,0.229570,61.531624,47.596657,-25.685589
480,187971380,-150.871918,-66.746620,150.832901,0.749351,8.847787,0.180061,24.532686,19.093899,-27.398438
481,187988047,-151.530640,-67.117317,151.332504,-0.361639,6.505996,0.267601,-10.558797,12.752582,-21.019306
482,188004714,-152.587906,-67.207626,152.383911,-1.308772,3.688041,0.353710,-3.907329,-7.765673,-24.174410
483,188021381,-154.695023,-67.164062,154.283783,-1.812698,4.029451,-0.423145,-19.963253,-23.046612,-38.443588
484,188038048,-157.662613,-66.932259,156.834457,-1.153575,1.908870,0.714776,-35.734123,-37.905964,-48.973934
485,188054715,-160.631729,-66.439545,159.226395,-0.656880,1.192732,1.130430,-44.951881,-48.922897,-42.552917
486,188071382,-163.344223,-65.805977,161.308990,-1.773805,0.223475,1.289742,-47.089420,-52.867302,-36.345085
487,188088049,-164.997452,-65.336754,162.703445,-3.190506,0.142432,0.463863,-21.624367,-37.607933,-25.608433
488,188104716,-166.098297,-64.990517,163.948029,-3.487261,1.727993,-0.017108,3.110736,-29.032398,-25.190552
489,188121383,-167.015121,-64.605019,165.278702,-4.167644,3.146989,0.371011,18.624289,-31.489676,-27.689552
490,188138050,-168.834854,-63.769688,167.496002,-5.205029,5.689080,1.304297,11.978718,-62.216064,-46.161060
491,188154717,-170.765900,-62.890312,169.873764,-6.502760,7.074630,1.182794,13.027018,-64.354263,-53.673969
492,188171384,-173.041702,-61.527477,172.774002,-8.514771,11.673804,1.603856,18.811979,-93.460976,-68.796661
493,188188051,-174.573685,-59.799801,175.545120,-12.304186,15.956683,2.145446,54.451374,-112.926636,-69.783257
494,188204718,-175.503357,-57.760178,178.218231,-16.199646,18.327600,4.345547,82.813255,-130.199371,-72.203346
495,188221385,-176.101593,-55.496304,-179.252884,-19.929457,17.631908,5.247791,92.267921,-142.679886,-73.250877
496,188238052,-176.450317,-52.742935,-177.277100,-19.685722,17.529531,5.021620,76.590340,-170.490219,-58.544811
497,188254719,-176.746429,-49.358143,-176.209702,-19.711514,15.143611,4.336710,33.521328,-206.268753,-28.070320
498,188271386,-176.155350,-45.196312,-176.911209,-17.020128,9.736165,-1.410494,6.005921,-248.629456,44.042835
499,188288053,-175.404892,-39.830349,-179.079208,-12.075776,6.493791,-8.191610,-41.447220,-315.169556,119.416451
500,188304720,-174.339706,-33.083336,177.127731,-2.806162,2.942219,-11.569311,-69.988838,-387.868896,218.633499
501,188321387,-172.470215,-25.351725,171.828262,8.417548,-2.843406,-11.874088,-41.888435,-429.777588,329.135864
502,188338054,-170.298538,-16.464468,166.553146,22.507135,-12.898032,-9.771418,18.380272,-483.692688,372.445618
503,188354721,-168.494293,-6.334230,161.323120,38.870358,-32.918518,-0.220578,47.264385,-541.519836,414.512482
504,188371388,-168.680099,3.086190,154.927612,48.966644,-45.333904,19.975779,-20.564039,-478.623932,488.115540
505,188388055,-171.201828,8.428844,147.848267,20.717674,-30.696053,2.140224,-106.972679,-242.471588,472.161469
506,188404722,-171.920044,8.940475,142.976303,3.430591,-13.151458,-7.745255,2.454478,11.016623,290.294678
507,188421389,-171.944824,8.914806,143.161484,4.803823,3.548842,-5.264287,-1.840555,-1.049314,-11.122691
508,188438056,-169.163208,7.432718,146.464142,-0.520929,-7.224034,-4.548168,140.044357,54.472626,-208.131027
509,188454723,-165.330215,3.736489,150.242310,4.059970,-9.480935,3.159785,209.115799,165.400330,-269.104004
510,188471390,-164.061768,-0.847624,153.775879,14.423426,-9.309221,1.788432,72.050766,208.225647,-277.106232
511,188488057,-165.107376,-5.478898,157.591614,18.069616,-9.393814,-1.083548,-48.689892,205.986069,-294.315491
512,188504724,-167.545654,-9.760074,161.539520,16.832151,-13.078558,0.490736,-113.405457,192.991043,-288.942139
513,188521391,-170.338272,-13.888812,165.459702,16.409885,-14.623815,1.899267,-117.875938,197.892532,-273.556061
514,188538058,-173.173676,-17.740940,169.452393,15.861129,-12.467850,1.196428,-103.375977,194.630524,-261.345886
515,188554725,-175.726364,-21.363523,173.440720,12.417817,-8.933189,0.454269,-71.650711,193.483200,-245.556320
516,188571392,-178.189758,-24.568871,177.321106,8.397477,-4.851131,-1.065736,-55.568657,179.649109,-224.359497
517,188588059,179.272354,-27.073851,-179.107147,3.744733,-1.624557,-1.697021,-57.572403,147.474777,-194.400497
518,188604726,176.954269,-28.866829,-176.136536,-0.735360,-0.084401,0.184210,-54.168522,111.730797,-153.867569
519,188621393,175.889938,-30.525080,-174.259613,-3.243815,-0.053387,1.312930,-6.778953,104.442001,-91.503105
520,188638060,175.906265,-32.171898,-173.334183,-4.105776,2.279556,0.220798,31.149420,100.980896,-40.310413
521,188654727,176.079224,-33.419209,-173.058167,-5.921452,4.697283,0.033921,20.634024,74.655930,-8.735653
522,188671394,176.214401,-34.535732,-172.928680,-8.844707,4.556791,-0.398999,13.749868,66.290337,-2.004764
523,188688061,176.856003,-35.661812,-173.471741,-10.106205,4.544737,-0.500776,21.068516,64.835060,30.614340
524,188704728,178.191345,-36.587112,-174.836075,-10.036520,5.073328,-0.431801,33.172768,51.597450,68.380669
525,188721395,-179.888519,-37.432365,-176.368179,-9.396473,5.694423,0.108313,61.192719,48.598083,74.074097
526,188738062,-177.504532,-38.413960,-177.881454,-7.843760,5.724849,1.031317,88.560890,59.473469,70.196495
527,188754729,-174.873032,-39.488495,-179.506287,-6.232990,6.668910,0.832761,97.933441,68.320915,71.297066
528,188771396,-172.595734,-40.570633,178.737808,-5.276161,6.650390,0.431536,70.216522,72.288162,73.044426
529,188788063,-170.723480,-41.593918,176.931580,-4.473201,6.055772,-0.119326,42.471062,71.534119,71.861824
530,188804730,-168.924011,-42.650757,174.910187,-3.716909,6.881231,-0.306244,27.977919,77.236023,77.291634
531,188821397,-167.973907,-43.693924,173.490524,-3.471285,4.640044,-1.689082,0.098080,72.691513,48.289944
532,188838064,-167.879303,-44.857555,172.370895,-1.818692,3.782186,-0.467997,-39.843784,77.263405,32.395985
533,188854731,-167.631897,-46.201977,171.085403,-0.948972,2.849741,2.298562,-38.814209,89.214638,35.663364
534,188871398,-167.979813,-47.317333,169.951385,-0.230145,3.997300,0.762498,-69.055473,74.185455,31.397240
535,188888065,-168.648987,-48.356094,169.051025,-1.727305,2.464100,0.381057,-78.801086,67.306511,22.861824
536,188904732,-168.875473,-49.236599,167.897522,-1.575693,2.197359,0.025860,-64.270470,59.628708,34.398731
537,188921399,-168.245178,-50.242779,166.277069,-1.317705,1.203584,0.782703,-34.990334,70.553383,49.591526
538,188938066,-167.128128,-51.340427,164.598602,-0.696614,0.878797,1.396114,-9.624522,76.835632,48.131973
539,188954733,-165.912415,-52.378563,163.037735,-0.686825,0.485056,1.751112,0.672036,72.972237,41.706825
540,188971400,-165.036575,-53.300362,161.784698,-0.783133,0.979364,0.991851,-5.978238,63.848991,30.071318
541,188988067,-164.795197,-54.049446,160.875641,-1.395129,1.327917,0.141479,-28.073208,50.725677,19.481091
542,189004734,-165.055847,-54.589672,160.248627,-1.667129,1.511249,0.141269,-44.807854,35.922672,12.740006
543,189021401,-165.456833,-54.998035,159.870926,-1.361267,1.409602,0.837455,-41.185425,25.936850,6.383334
544,189038068,-165.766159,-55.324017,159.780563,-1.620881,1.553856,1.143756,-21.619549,18.633043,-1.877429
545,189054735,-165.942184,-55.539047,160.026199,-2.002517,2.044343,1.160695,2.966305,9.381445,-11.277242
546,189071402,-166.128265,-55.582584,160.617630,-2.685115,2.913766,1.045038,19.492002,-3.394127,-20.119650
547,189088069,-166.532196,-55.364235,161.555862,-3.782115,4.234245,1.216080,23.534218,-21.359180,-27.918493
548,189104736,-167.312805,-54.974262,162.834396,-4.587967,4.594251,2.435632,17.528347,-33.797424,-37.392494
549,189121403,-168.476608,-54.490189,164.459000,-5.202650,5.439547,3.286791,11.157320,-41.295662,-48.943764
550,189138070,-170.057266,-53.962467,166.454910,-5.976650,5.990542,3.047416,3.724569,-45.245865,-62.881851
551,189154737,-171.905258,-53.454292,168.816833,-6.746794,6.730992,3.091074,4.756958,-44.365753,-78.056198
552,189171404,-173.878998,-53.089485,171.435013,-8.410843,7.877709,4.239335,8.898897,-34.455112,-90.496414
553,189188071,-176.416946,-52.596912,174.135681,-11.664598,9.766433,5.194166,-21.703672,-38.843010,-94.999893
554,189204738,-179.393494,-51.831264,176.878555,-13.812933,10.509848,6.286266,-47.088013,-50.719082,-99.061913
555,189221405,177.728516,-50.691418,179.536545,-15.129186,12.595313,4.907127,-46.829857,-68.069366,-100.748352
556,189238072,175.767242,-49.175640,-178.259048,-15.909472,14.141873,2.616763,-14.988560,-87.120934,-90.124077
557,189254739,175.560211,-47.070728,-177.192841,-16.935461,15.890927,-1.276256,36.676113,-123.880196,-52.090199
558,189271406,176.723358,-44.200161,-177.450592,-15.373044,13.422272,-5.929693,60.194901,-173.766632,-0.749722
559,189288073,179.010483,-40.086830,-179.182449,-12.191489,8.691008,-8.011476,68.915596,-250.683334,67.875641
560,189304740,-178.823166,-34.557327,177.861649,-2.780522,2.464730,-10.548785,23.792761,-332.667969,141.674622
561,189321407,-177.656403,-27.928679,173.864807,7.365835,-2.982064,-7.068989,-53.044285,-392.269928,217.279938
562,189338074,-175.944260,-20.872059,168.417831,18.905113,-7.443065,-3.801954,-31.074041,-406.983582,320.953156
563,189354741,-174.146378,-13.113498,163.155594,28.406893,-17.960754,-4.540433,16.766424,-438.526184,341.210602
564,189371408,-173.803238,-4.943661,157.921219,28.784616,-30.563641,-3.026017,-27.335815,-455.707153,360.113861
565,189388075,-173.216034,1.305683,152.271255,25.753668,-30.492470,5.028571,25.820168,-335.047577,379.136780
566,189404742,-172.423019,4.633681,147.250671,12.600194,-17.771223,-2.457011,64.536583,-161.450836,323.419769
567,189421409,-171.496231,5.801437,144.225693,4.025590,-10.230647,-6.149122,73.476097,-45.127045,188.734146
568,189438076,-169.964310,5.832617,143.941833,6.066752,-3.120953,-3.360381,95.010040,-0.155064,16.985237
569,189454743,-167.363907,4.793763,145.837662,4.811496,-3.652878,-4.375869,146.841293,37.818268,-123.350784
570,189471410,-164.840256,2.647132,148.425766,3.567850,-6.558805,-0.549308,142.667068,86.762466,-181.416595
571,189488077,-163.083344,-0.457963,150.994095,7.019200,-7.474220,0.261360,103.787796,135.434387,-199.607071
572,189504744,-161.733307,-3.891113,153.519241,10.051996,-7.053616,-1.198417,88.069389,149.548431,-206.641571
573,189521411,-160.642929,-7.335287,156.130066,10.972719,-8.175535,0.631118,82.067070,144.298126,-214.277634
574,189538078,-159.905243,-10.215462,158.503174,10.733283,-8.175732,0.234529,67.314941,114.154930,-190.860443
575,189554745,-160.065689,-13.026468,160.827194,9.478449,-6.171798,0.568775,19.807058,110.719765,-186.133636
576,189571412,-161.440704,-15.533944,163.008209,5.757994,-5.020597,3.336793,-48.861713,99.242943,-169.399887
577,189588079,-163.234741,-17.696714,164.833588,4.025898,-4.705060,4.155720,-74.972771,90.826752,-139.454559
578,189604746,-165.062378,-19.876944,166.470322,3.597520,-4.456355,3.913191,-76.684975,99.468788,-125.249413
579,189621413,-166.687195,-22.166761,168.028534,3.657663,-4.376719,2.295150,-62.611130,110.960991,-118.243538
580,189638080,-168.046326,-24.666798,169.446854,2.875677,-5.251263,1.255899,-46.394672,128.315826,-109.093178
581,189654747,-168.943146,-27.491423,170.566589,1.853270,-3.256999,0.816187,-22.950361,153.059494,-93.024681
582,189671414,-169.341141,-30.397005,171.348572,-0.110551,-2.072349,-0.023116,0.142704,162.503555,-73.257515
583,189688081,-169.443283,-33.126598,171.763809,-0.259084,0.761209,0.703132,8.295316,156.098328,-51.064705
584,189704748,-169.742386,-35.313377,171.954102,-0.185265,2.401695,0.554677,-10.211607,126.362694,-33.080212
585,189721415,-170.445770,-37.140026,172.110352,-0.981513,3.133330,-0.380961,-35.339474,105.680962,-26.396158
586,189738082,-171.018967,-38.952961,171.750656,-1.457762,1.589863,-1.281040,-46.363846,109.107620,-0.830149
587,189754749,-171.232559,-40.709515,171.078064,-3.037382,0.022708,-1.399577,-37.333389,107.919724,14.277013
588,189771416,-170.923035,-42.414249,169.944275,-3.388895,2.387415,-0.409555,-25.227810,107.940521,34.336983
589,189788083,-169.979309,-44.073898,168.570328,-4.261797,1.869421,-0.028538,1.477595,107.151520,42.619179
590,189804750,-167.725967,-45.756859,166.594757,-4.996479,2.726308,0.134702,52.832935,114.277962,62.755531
591,189821417,-164.899551,-47.265190,164.281891,-5.388550,1.693550,0.237229,70.229218,109.493149,71.302719
592,189838084,-161.842850,-48.534065,161.705826,-4.822934,2.823581,1.497919,70.048996,101.556419,77.427338
593,189854751,-159.202194,-49.709969,159.183304,-3.276964,4.430978,2.418495,45.339806,98.490738,69.783897
594,189871418,-157.053543,-50.811298,156.749420,-2.339098,5.635648,2.589538,17.975731,95.045090,61.952911
595,189888085,-155.534286,-51.714417,154.552765,-2.743003,5.951497,1.930936,-10.289931,81.715797,53.667786
596,189904752,-154.662033,-52.427132,152.527237,-2.854209,6.000648,2.139993,-42.153553,69.185188,49.700016
597,189921419,-154.110764,-53.090675,150.693115,-2.540317,5.834128,2.583117,-53.153522,63.630680,42.798000
598,189938086,-153.719238,-53.695801,149.023972,-2.569686,6.144911,2.372746,-55.521603,57.806938,37.638184
599,189954753,-153.517395,-54.252750,147.726151,-3.435434,5.805754,1.812771,-49.479771,49.222355,26.151903
600,189971420,-153.453003,-54.774689,146.828598,-4.225822,5.443841,0.993984,-38.597164,40.909977,13.973063
601,189988087,-153.481567,-55.260803,146.316376,-4.526486,5.070657,0.814514,-25.504305,32.890175,2.720488
602,190004754,-153.317276,-55.792736,146.106384,-4.487471,4.710071,0.931354,0.861467,30.649948,-7.922689
603,190021421,-152.832336,-56.420887,146.201401,-4.288692,3.914891,1.371767,35.219273,31.076227,-19.905489
604,190038088,-151.913834,-57.189144,146.428131,-3.557712,3.949026,1.346864,67.884346,36.293507,-27.974625
605,190054755,-151.404541,-57.807171,147.276428,-4.678184,3.408190,0.505625,74.875374,18.559357,-41.671276
606,190071422,-151.814423,-58.665321,148.831512,-4.298019,4.566538,-0.237976,56.132790,20.836500,-67.682289
607,190088089,-152.170074,-59.449829,150.913803,-4.526946,2.356883,2.012967,87.213226,10.282410,-78.804504
608,190104756,-152.167801,-60.267010,153.369705,-3.292101,2.900344,2.560107,128.958450,7.699977,-88.305099
609,190121423,-151.956253,-61.133514,156.268356,-4.021026,3.199925,3.318757,165.758041,4.936468,-99.529594
610,190138090,-152.279022,-61.889191,159.755417,-5.668300,2.913214,3.015810,165.922241,-7.714097,-109.383224
611,190154757,-154.218735,-62.082771,164.116119,-8.202472,4.411686,2.332644,116.014633,-46.054260,-114.917595
612,190171424,-157.497040,-61.786102,168.779633,-8.111085,4.115851,2.881455,51.638630,-71.180717,-112.798813
613,190188091,-161.264221,-61.258034,173.238556,-7.082400,6.601300,3.840719,10.570534,-75.672501,-108.184723
614,190204758,-165.779037,-60.417702,177.827164,-5.890130,10.257900,3.989912,-29.010679,-87.491508,-114.286690
615,190221425,-170.241135,-59.285332,-177.834412,-7.955348,12.061953,4.575824,-41.159264,-94.703743,-113.705925
616,190238092,-173.863007,-57.564842,-174.186218,-13.864745,13.858265,4.651035,-29.342155,-119.171310,-99.170982
617,190254759,-175.655655,-55.393002,-172.202103,-18.708361,13.550728,4.195165,-6.834118,-136.897675,-53.492069
618,190271426,-175.574356,-52.836124,-172.275513,-18.873247,11.903493,0.827735,2.779199,-153.928391,14.391757
619,190288093,-174.513763,-49.493565,-174.332733,-15.142400,10.731931,-4.522601,-31.059067,-194.272324,94.536293
620,190304760,-172.782089,-45.148144,-178.701599,-9.951171,7.749815,-9.195208,-87.429047,-240.513168,205.548157
621,190321427,-173.034851,-39.055813,176.778000,-1.268720,6.249408,-12.881334,-195.570877,-338.928467,244.974960
622,190338094,-174.511902,-31.337435,172.250839,8.972329,1.598640,-13.043935,-243.630661,-437.322937,271.115875
623,190354761,-175.356735,-22.890249,167.307037,22.386467,-8.128596,-10.998180,-184.382050,-482.454468,308.006561
624,190371428,-174.875580,-14.319112,162.299988,29.765980,-27.817707,-3.316352,-65.647118,-488.999207,327.704102
625,190388095,-173.150711,-6.512269,157.007507,32.729954,-38.851868,4.204416,47.257458,-434.073486,359.652863
626,190404762,-172.248154,-0.733036,151.045227,27.218706,-26.361103,5.802509,32.853161,-299.341125,398.265778
627,190421429,-173.449066,2.849420,146.298767,5.928610,-14.644474,-9.606188,-65.336975,-178.751831,309.275604
628,190438096,-174.986191,4.004601,143.763412,-0.294869,-6.148791,-6.357313,-81.739349,-54.684925,158.024628
629,190454763,-175.399170,4.705085,144.787308,5.571923,1.735026,-2.201214,-28.074701,-48.046539,-57.555271
630,190471430,-173.478577,4.322643,147.811462,2.015981,-5.182710,-1.543375,102.301048,4.274336,-182.297302
631,190488097,-170.706879,2.368234,151.237411,2.474661,-8.771011,1.959335,155.604843,86.862602,-219.448395
632,190504764,-168.518143,-0.826836,154.479340,9.694748,-8.632518,-0.666340,129.989502,152.423477,-225.942261
633,190521431,-167.326508,-4.462837,157.587891,12.268650,-7.888120,-2.920834,81.409004,173.279800,-227.908173
634,190538098,-166.920105,-7.865841,160.927719,13.458818,-7.177203,-1.238211,47.230721,153.588104,-239.788818
635,190554765,-167.337738,-10.843009,164.295700,12.067495,-6.789604,2.707928,9.138347,128.689758,-234.238739
636,190571432,-167.918411,-13.762927,167.431488,12.643936,-5.612778,4.035598,6.597008,130.725815,-217.162003
637,190588099,-169.258698,-16.402147,170.406250,9.774580,-4.032628,0.856228,-32.616833,120.132713,-200.332672
638,190604766,-171.715607,-18.494629,172.942307,6.300482,-3.193700,-0.324953,-100.431252,98.868111,-163.987991
639,190621433,-174.710373,-20.338667,175.219620,4.907393,-2.832965,0.469169,-132.912033,93.687050,-141.114395
640,190638100,-177.504532,-22.244896,177.155640,2.247658,-2.559602,0.804945,-124.130508,105.816505,-115.818153
641,190654767,-179.225937,-24.349976,178.331589,0.148945,-1.967323,0.273212,-74.060364,123.460411,-68.447853
642,190671434,-179.809677,-26.457134,178.749832,-0.693622,0.746418,-0.274313,-22.953596,125.287155,-23.798071
643,190688101,-179.652832,-28.534872,179.063217,-1.023617,1.077711,-0.447837,19.395712,123.631996,-17.330936
644,190704768,-179.004349,-30.705078,179.123550,-1.038141,1.390801,0.441985,42.000439,129.208939,-4.740771
645,190721435,-177.757767,-32.825745,178.577118,-1.348607,1.948742,0.389532,58.838352,127.013504,24.200769
646,190738102,-176.056396,-34.870861,177.457321,-1.798233,2.161068,0.017570,65.963280,124.568352,49.031086
647,190754769,-174.003754,-36.855114,175.985275,-2.705605,0.637294,0.268283,72.724236,123.828819,60.925739
648,190771436,-171.467743,-38.751362,174.097931,-2.667659,-0.847811,0.618315,84.055847,123.183731,74.299011
649,190788103,-168.606979,-40.534313,171.724289,-2.904708,0.490950,0.271351,82.088570,123.332619,89.432343
650,190804770,-165.411606,-42.089939,168.983276,-3.659352,1.146431,-0.012277,84.457977,117.701385,99.311218
651,190821437,-162.379791,-43.276749,166.120834,-4.689544,1.155493,-0.036888,66.791901,102.412575,101.467957
652,190838104,-159.742981,-44.151627,163.277481,-4.234099,2.476164,0.703742,41.642910,88.645538,99.517662
653,190854771,-158.919388,-44.428272,161.882828,-4.943840,2.499069,0.254274,-7.660951,35.647739,50.108635
654,190871438,-156.223083,-44.748661,158.217621,-5.879153,-0.714695,1.385592,8.728246,76.478493,137.351364
655,190888105,-156.368866,-45.288307,157.193954,-5.341773,6.157939,0.337055,-50.829697,46.059582,26.664793
656,190904772,-155.055603,-46.011387,154.362793,-5.488060,-0.772570,2.941211,-41.317528,87.324898,90.326805
657,190921439,-153.468613,-46.826347,151.881653,-5.501308,4.295901,2.856610,-11.267255,87.544403,71.149178
658,190938106,-151.543488,-47.660587,149.062088,-4.673207,4.228472,2.156780,-7.353770,96.339333,78.711700
659,190954773,-149.155090,-48.534630,146.122757,-5.459095,4.294520,1.766987,13.392516,102.754410,76.366722
660,190971440,-147.061722,-49.248466,143.649536,-5.164474,3.943027,1.597237,15.153350,86.818924,60.165539
661,190988107,-146.111160,-49.922890,142.230606,-3.814208,4.095970,2.462360,-6.417353,63.078350,23.747986
662,191004774,-145.844025,-50.603275,141.497803,-3.290529,4.516328,3.348754,-16.408684,48.467518,0.419085
663,191021441,-145.311279,-51.500244,141.016525,-3.319673,4.710375,3.047117,10.880840,53.556076,-15.477596
664,191038108,-145.281082,-52.385471,141.144119,-4.030703,5.467063,1.781668,9.217482,39.873947,-34.141235
665,191054775,-145.663834,-53.243446,141.916748,-4.537908,4.287776,2.475117,15.348625,25.419756,-52.275261
666,191071442,-146.225143,-54.125916,143.137787,-4.173028,4.159944,3.173479,26.736698,18.454969,-65.605530
667,191088109,-147.081375,-54.962151,145.003326,-3.631821,4.242437,3.738396,41.188015,5.100133,-81.819977
668,191104776,-148.385117,-55.724720,147.533340,-3.245136,5.281983,3.919194,48.034199,-8.523046,-97.406914
669,191121443,-150.411514,-56.396225,150.810059,-3.868262,5.995443,3.171161,42.928165,-22.331465,-114.965172
670,191138110,-153.346008,-56.978294,154.827774,-4.309514,6.628798,3.147275,26.801069,-32.734470,-133.182755
671,191154777,-157.145065,-57.339317,159.468475,-5.562563,7.738781,3.440383,7.437922,-44.689014,-146.136627
672,191171444,-162.058563,-57.341789,164.641510,-6.553076,8.733519,4.563752,-32.033154,-59.360458,-156.971161
673,191188111,-168.296021,-56.913609,170.405960,-7.977353,10.190998,5.444489,-82.241859,-73.957802,-174.819214
674,191204778,-175.458084,-55.897781,176.447632,-11.041412,11.699872,7.040676,-126.195641,-89.746361,-189.857437
675,191221445,177.908936,-54.341953,-178.050919,-12.761274,13.192601,5.018349,-125.608765,-98.432526,-186.632782
676,191238112,173.251358,-52.224636,-173.981155,-14.337393,15.089410,3.530060,-82.161827,-116.518044,-155.262421
677,191254779,170.895569,-49.682945,-171.672241,-15.561255,11.982226,1.312672,-32.227196,-140.168900,-107.390266
678,191271446,170.824829,-46.509777,-171.379684,-13.258153,8.704360,-2.596785,10.328608,-187.312698,-41.741032
679,191288113,172.551208,-42.513321,-173.468323,-8.319783,8.093974,-6.358408,17.183334,-251.372391,53.853279
680,191304780,175.314911,-37.958168,-177.663284,-0.648544,5.544952,-8.034663,4.598250,-293.167633,162.290466
681,191321447,178.360748,-32.844025,176.754868,8.120208,0.117968,-7.120548,-10.013515,-322.388031,255.768478
682,191338114,-178.981491,-27.088032,170.922882,14.672701,-7.395513,-7.073277,-14.103650,-347.881012,301.397522
683,191354781,-176.506729,-20.348949,164.875473,17.377028,-10.224363,-11.883881,3.666042,-391.743011,348.018250
684,191371448,-174.474472,-13.017840,158.879333,21.117149,-20.478262,-13.488866,19.796427,-412.151489,378.327148
685,191388115,-172.917252,-6.390234,152.658722,25.892616,-31.051935,-2.729612,31.745544,-355.581665,409.473877
686,191404782,-171.652328,-1.770294,146.566544,16.986225,-23.475540,-1.388664,51.184551,-226.563812,398.544220
687,191421449,-171.131409,1.100772,142.479797,6.803019,-13.467498,-6.357787,31.198908,-134.604858,268.198730
688,191438116,-171.448822,2.592065,141.382233,6.500668,-4.196889,-3.032349,-15.537988,-79.515953,78.571495
689,191454783,-170.865265,2.989304,142.964539,8.741150,-2.657726,-7.024850,31.770769,-39.157642,-90.074547
690,191471450,-169.836746,2.100466,145.785553,0.114018,-8.638701,-1.466485,55.570107,23.203796,-175.679306
691,191488117,-168.254059,-0.805184,148.583466,2.264668,-11.989546,2.900719,94.394630,138.212601,-197.991684
692,191504784,-166.562073,-5.157260,151.196655,10.260177,-8.896460,-1.995912,110.958961,219.653946,-209.821945
693,191521451,-165.471832,-9.998837,154.084198,13.108277,-9.697478,-0.848885,89.560059,239.326065,-236.936371
694,191538118,-165.347153,-14.902261,157.252014,14.991049,-11.723703,2.781565,49.801605,236.898117,-253.825439
695,191554785,-165.891098,-19.811865,160.151627,14.030754,-12.409292,4.252354,20.632650,243.069168,-234.120056
696,191571452,-166.728531,-24.729176,162.438324,11.529013,-9.744448,3.328831,3.116920,255.615646,-193.298706
697,191588119,-167.822052,-29.274200,164.161011,6.544726,-6.145025,0.491164,-17.327229,244.762161,-150.015884
698,191604786,-169.096252,-32.963451,165.452698,3.390991,-2.743328,-1.556801,-35.061882,202.670258,-109.406303
699,191621453,-170.416092,-36.361710,166.702774,2.206629,-3.496355,-0.458701,-35.198723,188.738525,-97.085533
700,191638120,-171.280197,-39.970795,168.056290,2.616251,-2.698901,0.777389,-0.336329,202.692184,-97.599998
701,191654787,-170.977875,-43.831562,168.734955,1.050203,-2.094579,1.047698,46.629814,223.267197,-65.792694
702,191671454,-169.666809,-47.190418,168.590088,-1.285727,0.740517,0.156857,73.742332,198.755981,-28.001534
703,191688121,-168.543106,-49.626518,168.190704,-3.210833,5.721056,-1.205377,50.797871,145.594788,-12.135795
704,191704788,-168.175262,-51.606365,167.986404,-4.067012,5.747857,-0.601092,13.913980,116.964119,-16.474066
705,191721455,-167.663483,-53.277668,167.514145,-4.616706,4.010815,1.344412,9.573097,100.710625,-4.210585
706,191738122,-166.705078,-54.663670,166.598969,-4.550435,4.202490,2.450299,14.429265,87.275841,12.941034
707,191754789,-165.065903,-55.804909,165.256866,-3.780387,3.894248,3.089541,33.538406,76.615974,27.732489
708,191771456,-162.915863,-56.548859,163.589478,-3.792609,5.127336,1.920052,47.236214,57.267342,41.120754
709,191788123,-160.289352,-57.009354,161.740234,-4.786249,6.105217,0.701314,66.119781,44.397728,48.874699
710,191804790,-157.600555,-57.315800,159.832138,-5.818795,5.110819,0.939612,66.492004,38.451252,51.252495
711,191821457,-155.159470,-57.466862,157.857666,-5.678101,3.826985,2.259736,48.033253,32.857277,54.791683
712,191838124,-153.125504,-57.574760,155.894485,-3.835320,3.049684,3.458252,24.040150,32.375549,54.031864
713,191854791,-151.771210,-57.645378,154.119141,-3.517652,3.838396,3.401456,-7.316863,29.107849,48.569969
714,191871458,-151.029739,-57.592796,152.461761,-5.268145,3.113653,1.842295,-38.115276,21.676071,48.216183
715,191888125,-152.012924,-57.861389,151.703690,-4.986691,3.398286,0.042366,-96.067970,24.687334,13.619437
716,191904792,-152.473129,-58.230465,150.993271,-5.676349,3.203620,0.204157,-62.397747,29.038052,9.609477
717,191921459,-153.065353,-58.487896,150.502655,-4.434958,3.267770,0.398241,-59.213375,19.725094,6.628461
718,191938126,-152.534286,-58.947880,149.569412,-3.825711,3.529526,1.844297,-14.610803,36.757195,13.212705
719,191954793,-151.245071,-59.666279,148.293442,-3.325264,4.198306,1.699379,12.900216,55.337158,14.133444
720,191971460,-150.569611,-60.406967,147.600479,-4.155198,4.404912,0.822095,5.890028,47.837852,-3.481947
721,191988127,-150.508209,-61.356552,147.189392,-4.553677,4.131657,1.039402,-16.478975,54.409752,-17.584356
722,192004794,-152.370148,-62.037033,148.791901,-3.979116,5.709049,0.414496,-25.669657,12.957758,-59.566837
723,192021461,-153.748947,-62.921097,149.947403,-4.747787,3.900457,3.395406,-19.849417,31.661226,-52.591274
724,192038128,-154.154236,-64.094742,151.030594,-4.530334,5.163375,2.424069,35.241123,49.415817,-56.964024
725,192054795,-155.866852,-64.841202,153.288116,-4.005826,5.864519,2.175148,20.863897,14.801080,-71.819450
726,192071462,-158.425858,-65.394432,156.553406,-3.747041,5.359379,3.158551,25.595078,-2.562871,-88.819855
727,192088129,-161.536179,-65.752518,160.581284,-4.021568,6.250424,3.676522,34.836750,-15.159065,-101.208252
728,192104796,-165.481644,-65.824478,165.378830,-4.952960,6.722284,4.867089,27.231674,-30.493616,-114.354645
729,192121463,-170.361847,-65.415565,170.726852,-6.273120,7.409292,5.136857,0.905979,-52.810432,-124.311081
730,192138130,-176.044830,-64.465736,176.519608,-7.418014,7.784847,5.236533,-24.646645,-75.077377,-139.340744
731,192154797,178.253036,-62.943527,-178.067612,-9.382424,10.426941,4.709625,-49.458260,-95.142426,-141.988754
732,192171464,173.049255,-61.113564,-173.470413,-11.441059,11.656983,5.991920,-67.100754,-100.751602,-137.231049
733,192188131,170.186798,-58.961281,-170.505692,-13.311439,11.799989,6.083397,-16.137733,-115.939392,-106.630920
734,192204798,169.044220,-56.375984,-169.179794,-13.417924,11.230335,2.993073,0.158845,-146.085831,-69.723030
735,192221465,169.686401,-53.352070,-169.767670,-11.676763,9.993489,-0.575760,11.168450,-183.264648,-13.439216
736,192238132,171.680679,-49.616470,-172.286896,-9.601997,8.059752,-5.370785,2.828000,-237.587036,56.710312
737,192254799,174.775787,-45.088573,-176.518692,-5.183591,7.511226,-8.917765,0.284911,-291.135529,138.908813
738,192271466,178.335754,-39.826878,178.176422,1.163214,5.448429,-10.259218,-0.046807,-330.200439,215.572891
739,192288133,-178.144989,-34.226410,172.660522,10.298129,-0.770353,-7.858815,13.037599,-336.517151,264.908539
740,192304800,-175.158722,-28.353710,167.042206,19.220865,-8.582955,-6.786570,5.279899,-335.832001,308.275696
741,192321467,-172.694565,-21.680597,161.206726,20.405331,-19.599051,-8.223835,0.932349,-365.370941,358.002899
742,192338134,-169.678833,-15.053220,155.125748,20.256651,-25.526974,-10.001250,67.028580,-340.642426,403.234070
743,192354801,-165.657471,-9.541032,149.269043,22.340385,-27.184753,-5.440671,167.458893,-250.602188,406.133667
744,192371468,-162.301559,-5.480674,144.639221,14.529531,-18.021008,-3.330381,166.250153,-159.096588,331.961609
745,192388135,-160.836594,-2.984343,141.955383,7.512260,-7.090733,1.298273,77.375145,-92.337761,199.670685
746,192404802,-161.930511,-1.550552,141.840302,3.471458,-0.811456,-2.747019,-64.509201,-80.351517,33.957153
747,192421469,-163.510925,-1.274721,143.722122,3.294181,-2.981941,-4.009931,-90.634689,-50.353024,-102.910042
748,192438136,-164.558487,-2.368931,146.297668,0.123631,-7.447897,1.179933,-56.536163,19.608004,-166.596130
749,192454803,-164.226944,-4.989976,148.723083,4.039539,-9.424768,0.820812,30.602800,111.350906,-182.229675
750,192471470,-163.437103,-8.458476,151.372513,8.564001,-9.533939,-2.825967,67.344330,154.870819,-209.643600
751,192488137,-162.695831,-12.252513,154.205887,11.082782,-9.659908,-1.058154,76.363487,168.019531,-226.362289
752,192504804,-162.120392,-16.090675,156.932861,12.392733,-9.717194,1.397956,75.912109,170.548508,-220.907272
753,192521471,-161.907120,-19.970243,159.301376,8.770135,-9.369593,0.476343,58.114960,178.672058,-200.500031
754,192538138,-162.309509,-23.682299,161.185944,6.357962,-7.518118,0.746340,19.232941,178.727310,-168.417969
755,192554805,-163.306961,-27.328981,162.794724,6.545415,-5.476206,1.454956,-16.939949,182.309845,-148.006866
756,192571472,-164.856277,-30.925697,164.491180,5.521688,-5.945177,1.303322,-42.063679,182.181213,-144.807663
757,192588139,-166.689697,-34.536148,166.318985,4.146822,-5.998648,0.755602,-49.353191,186.349625,-142.786575
758,192604806,-168.249344,-38.239025,168.062469,2.748110,-3.404962,0.960213,-30.176992,197.650070,-130.537247
759,192621473,-169.176880,-41.950352,169.375427,0.170365,-1.314625,1.865918,-3.590148,205.625275,-102.814873
760,192638140,-169.730087,-45.431126,170.335464,-0.655580,1.435856,2.805467,7.909835,196.739838,-79.307724
761,192654807,-170.313919,-48.677181,171.187592,-0.041081,2.383833,2.843273,3.715412,184.822891,-68.186745
762,192671474,-171.220322,-51.745041,171.777481,0.378082,2.093262,3.400662,-25.856014,177.094223,-52.020123
763,192688141,-173.159546,-54.460003,172.226074,-1.834151,0.270171,2.712614,-93.482948,158.236404,-38.269093
764,192704808,-175.390839,-56.901119,172.672806,-3.584397,0.724635,1.830020,-110.390739,143.271057,-29.766712
765,192721475,-178.084732,-58.977127,173.607697,-4.932166,2.970320,0.291713,-112.740654,121.694603,-36.932877
766,192738142,179.106598,-60.855579,175.167435,-5.584291,3.275280,-0.289535,-86.185509,111.297150,-48.022415
767,192754809,176.788971,-62.773163,177.106049,-5.333861,3.707081,0.644773,-35.169968,115.937119,-50.887180
768,192771476,174.795349,-64.679077,179.362747,-5.337531,2.992351,0.937709,3.161885,117.417473,-51.481064
769,192788143,172.747513,-66.401428,-178.173309,-5.428915,2.606879,1.037351,13.067934,108.328110,-49.731617
770,192804810,169.055344,-67.352211,-174.421143,-4.710124,5.420112,0.820910,-13.110937,69.252388,-78.356590
771,192821477,166.293915,-68.346474,-171.832977,-6.572331,3.619962,-1.140356,-20.484280,69.723656,-44.546120
772,192838144,160.852341,-69.225754,-167.574951,-7.265139,6.259623,0.281025,-86.926773,75.652702,-73.822212
773,192854811,156.783340,-69.949661,-164.288818,-7.892159,5.453290,1.659217,-57.967632,64.263344,-48.488785
774,192871478,153.876648,-70.786896,-161.843109,-6.667832,6.886834,0.889236,-34.799995,65.134125,-23.893993
775,192888145,151.753510,-71.467926,-159.443726,-5.669146,9.988228,1.417185,10.224196,56.521271,-22.802589
776,192904812,151.199661,-72.147507,-157.711517,-5.691478,8.146194,0.686944,66.897797,50.215069,-9.069978
777,192921479,151.170258,-72.640312,-155.911453,-5.475454,7.956464,1.065992,102.574554,40.542233,-14.387319
778,192938146,151.125534,-72.654236,-154.446609,-3.957979,6.355074,1.534702,82.604919,12.266711,-22.557453
779,192954813,151.008179,-72.301552,-153.364426,-3.376659,5.461946,2.104865,56.281322,-10.179732,-27.335041
780,192971480,151.119263,-71.683998,-152.810776,-2.685861,5.328197,2.249302,39.663906,-28.578310,-26.896051
781,192988147,151.331161,-70.631409,-152.591461,-3.133553,5.463362,1.844946,26.579039,-54.431824,-34.097744
782,193004814,151.260025,-69.350166,-152.729797,-4.740271,5.942288,1.288157,-10.651761,-69.916054,-34.396645
783,193021481,151.068726,-67.444427,-153.561920,-5.662791,6.793581,0.873142,-56.476257,-110.157562,-39.003181
784,193038148,150.486755,-64.934090,-154.918854,-5.054029,5.498573,0.634568,-107.973106,-148.630661,-44.795654
785,193054815,150.078690,-62.350052,-156.263763,-2.060971,4.853587,2.690576,-95.351562,-153.549652,-45.690174
786,193071482,150.060272,-59.926598,-157.341583,-1.609451,8.021471,6.139290,-56.297863,-142.734024,-45.447052
787,193088149,150.324493,-57.492088,-158.114349,-5.613347,10.159904,7.039629,-22.318617,-139.857788,-51.655060
788,193104816,151.693634,-55.055508,-158.953293,-10.796831,11.593700,7.042671,41.734428,-142.567627,-46.341576
789,193121483,154.852081,-52.288048,-160.355957,-15.139166,14.139138,4.714997,123.142700,-171.889343,-30.066923
790,193138150,159.125015,-48.635319,-162.563248,-17.865555,15.531661,-0.613458,155.631638,-235.848312,-7.967679
791,193154817,164.051498,-44.076572,-165.742691,-17.081823,14.556929,-7.397798,158.852524,-302.252533,38.676117
792,193171484,168.114059,-38.104961,-169.708893,-13.190698,11.302963,-15.391671,88.566406,-391.987030,88.103836
793,193188151,169.136276,-30.522289,-174.254349,-2.699280,5.292198,-15.875435,-91.038124,-491.459381,131.373779
794,193204818,169.067398,-22.035196,-179.865952,12.299752,0.618681,-3.294030,-151.724731,-558.019104,200.552567
795,193221485,169.397552,-13.592075,174.018585,20.768009,-6.707239,5.192364,-91.003105,-563.739136,248.929382
796,193238152,169.163757,-4.443479,167.592941,29.023174,-17.436354,-1.614169,-72.905785,-610.872620,272.501862
797,193254819,166.477646,5.164191,160.128433,31.125870,-28.500471,-2.645967,-156.202682,-658.492004,316.818085
798,193271486,161.360901,12.350111,151.619965,31.488245,-34.336269,16.949991,-226.781723,-554.557556,365.921448
799,193288153,155.721329,15.460340,144.243576,7.715495,-25.214600,-2.320902,-230.019241,-331.709625,331.715668
800,193304820,153.690109,15.241475,139.831116,-3.146394,-14.827757,-14.020712,-50.311874,-98.231422,236.411179
801,193321487,157.374634,13.232941,139.868134,0.076955,1.938607,-6.456576,221.883804,109.585533,47.953892
802,193338154,165.449326,10.638371,142.962585,3.054914,-0.697467,-6.081028,447.262634,204.550201,-122.674995
803,193354821,174.923065,6.727619,147.486526,3.251497,-8.019954,-0.131081,528.304565,276.091949,-224.712418
804,193371488,-179.167953,2.172433,151.437897,11.277634,-10.130043,3.714972,337.175964,280.880249,-226.262604
805,193388155,-178.710464,-2.118893,155.095947,14.243407,-10.529675,-0.218912,28.681135,252.304810,-224.290375
806,193404822,179.671768,-6.442436,157.994843,14.889080,-9.194144,0.802833,-82.665924,256.945648,-175.692535
807,193421489,177.946060,-10.903433,160.486847,11.465075,-10.144691,-0.201946,-79.582161,269.710663,-142.283203
808,193438156,177.679321,-15.982291,163.008789,7.095134,-12.240733,-1.551921,20.518864,309.167603,-135.513443
809,193454823,179.041397,-21.875187,165.663589,6.620116,-8.468005,-2.143918,134.629333,356.795258,-140.616180
810,193471490,-179.666946,-27.239506,167.860611,5.091893,-2.304946,-2.777473,133.523392,321.588348,-118.255257
811,193488157,-179.028030,-31.314205,169.098068,3.059290,0.062106,-2.404657,75.917755,242.826859,-67.637741
812,193504824,-179.223236,-34.594814,169.972778,0.949922,0.814185,-1.052950,18.134184,195.240646,-47.128017
813,193521491,-179.675018,-37.429211,170.566925,-0.390429,0.343373,0.491972,-4.843019,168.876480,-30.558916
814,193538158,179.888809,-40.088566,170.979813,-1.834359,0.140557,-0.046297,-9.355768,158.616180,-19.705450
815,193554825,179.943085,-42.339523,170.609375,-2.453119,1.934492,-0.742249,-10.084679,134.115723,16.829252
816,193571492,-179.149384,-44.264015,169.544968,-3.788996,3.061794,-0.195129,11.957163,114.858536,45.588100
817,193588159,-177.647247,-46.082977,168.130020,-4.399943,3.417765,0.332423,31.224377,109.824631,56.687542
818,193604826,-175.388748,-47.760220,166.293701,-5.200027,2.552501,1.281798,56.345730,104.059685,68.916695
819,193621493,-172.542038,-49.137836,163.980103,-4.837899,3.930330,1.708247,68.233665,90.900742,82.788727
820,193638160,-169.335297,-50.223827,161.598694,-4.529388,4.828118,1.671995,84.789566,77.918076,80.952141
821,193654827,-165.833298,-50.948761,159.263199,-3.588306,5.634202,1.683214,103.195396,60.611298,77.460709
822,193671494,-162.696350,-51.263206,157.056656,-2.646685,5.777329,1.336318,86.526100,39.699074,74.824677
823,193688161,-160.170471,-51.318459,155.123795,-3.503778,3.816911,1.958934,62.419910,25.226110,67.631882
824,193704828,-158.086716,-51.200371,153.281342,-4.700728,3.383745,1.419318,40.172848,17.007511,67.105949
825,193721495,-156.254852,-50.981632,151.415726,-4.395305,2.672433,0.931043,24.182503,14.152598,69.837845
826,193738162,-154.260040,-50.830311,149.466309,-3.165884,2.336307,1.234148,30.286247,21.585569,70.737465
827,193754829,-153.283524,-50.503899,148.288742,0.215657,4.382060,0.082607,5.320808,1.178918,48.784008
828,193771496,-152.664719,-50.168823,147.318710,-2.279544,0.726878,1.873188,-6.287932,-2.076256,42.192265
829,193788163,-152.043610,-50.472744,145.961533,-0.449392,2.080848,-1.215878,-24.019413,39.223881,37.562977
830,193804830,-151.224442,-50.690102,144.367142,-3.004962,0.908978,-0.072119,-23.364941,39.279819,47.224541
831,193821497,-149.916183,-50.837280,142.346390,-2.076407,1.063232,-0.629884,-14.027888,44.308270,62.424835
832,193838164,-148.090897,-51.052418,139.955841,-1.821223,0.560037,0.385623,-0.484491,56.534237,70.789459
833,193854831,-146.416763,-51.115532,137.807022,-0.862205,1.391821,0.067884,1.512471,45.922714,66.041687
834,193871498,-145.415268,-51.057915,136.375717,-0.455142,1.280219,-0.415569,-5.346142,26.295219,46.588634
835,193888165,-145.001434,-50.866440,135.659683,-1.034560,1.101898,-0.517153,-7.152970,4.931836,28.753563
836,193904832,-144.602173,-50.607323,134.889221,-2.019022,0.673513,-0.420192,-10.447783,3.083391,32.847828
837,193921499,-144.132935,-50.296867,134.122589,-1.839831,0.547709,-0.173213,-5.929109,0.842668,34.634750
838,193938166,-143.704102,-49.945686,133.491104,-1.596127,0.864792,0.113778,-1.961210,-3.805498,32.020752
839,193954833,-143.141983,-49.541386,132.983154,-1.518234,0.735249,0.361398,11.851203,-8.830487,30.250299
840,193971500,-142.280792,-49.079144,132.556290,-1.595309,0.984313,0.066113,33.631783,-13.036991,30.068211
841,193988167,-141.389572,-48.479214,132.259491,-1.572534,1.539935,-0.538938,41.458492,-22.143187,31.450102
842,194004834,-140.685776,-47.747070,132.201828,-1.471362,1.357462,-0.482553,41.032299,-33.800076,29.403090
843,194021501,-139.996460,-46.948895,132.215744,-1.538836,1.316481,-0.500154,43.353409,-38.327019,30.115227
844,194038168,-139.352859,-46.057323,132.280777,-1.636590,1.447812,-0.519799,42.827465,-43.620773,32.557358
845,194054835,-138.779999,-45.027092,132.366135,-1.789984,1.738330,-1.038543,39.405701,-50.150383,37.781517
846,194071502,-138.405396,-43.761158,132.498947,-1.925202,2.152436,-1.408844,29.429813,-61.840191,45.961674
847,194088169,-137.935043,-42.264450,132.670715,-2.100728,1.943477,-1.581936,36.631031,-73.047592,54.273052
848,194104836,-137.222565,-40.583435,132.834152,-2.136006,1.911117,-2.080555,50.615345,-80.529335,62.610741
849,194121503,-136.312988,-38.702850,133.035919,-2.189536,1.704434,-2.731583,63.674076,-89.710274,70.500328
850,194138170,-135.446976,-36.582310,133.330566,-1.840609,1.665723,-3.187365,64.130775,-102.203545,78.533760
851,194154837,-134.595901,-34.207409,133.737869,-1.549515,1.538583,-3.287305,66.592690,-115.999466,86.639877
852,194171504,-133.812607,-31.544840,134.226166,-1.016843,1.755161,-3.916552,64.275581,-130.146149,97.378708
853,194188171,-133.130463,-28.562853,134.784119,-0.793187,1.741916,-4.558690,59.067348,-145.247955,109.925743
854,194204838,-132.496429,-25.242558,135.413757,-0.798435,1.491853,-5.341231,56.514072,-161.230499,123.261063
855,194221505,-131.902908,-21.575022,136.166428,-0.666478,1.005836,-5.990167,54.929596,-179.638870,135.195770
856,194238172,-131.303619,-17.511744,137.103546,-0.407111,0.451243,-6.737784,56.143276,-202.621338,147.133804
857,194254839,-130.653076,-12.992148,138.282455,0.222460,-0.346819,-7.691112,59.013683,-230.477600,159.981415
858,194271506,-130.229462,-7.817000,139.865234,2.136348,-1.212790,-9.723383,43.947262,-273.633148,175.720016
859,194288173,-130.270996,-2.255993,141.989609,4.102564,-3.016409,-7.666367,10.100665,-313.618134,172.575500
860,194304840,-130.626114,3.197106,144.545349,1.796886,-5.167486,-0.645609,-21.147326,-330.068481,149.429626
861,194321507,-130.515533,8.543803,146.962143,1.538271,-3.843341,4.197083,-6.816007,-319.318420,149.792725
862,194338174,-129.933411,13.997544,149.290161,2.402783,-1.919858,5.391878,8.969991,-317.008301,161.298737
863,194354841,-128.438629,19.498940,151.498749,2.641499,-0.312171,5.611994,52.791733,-308.013550,175.591522
864,194371508,-125.736679,24.705799,153.591278,1.582994,-1.360729,7.340553,116.119446,-282.291595,178.998962
865,194388175,-122.813179,29.407633,155.462143,-0.148654,-3.368363,9.631170,125.610107,-242.578323,176.767944
866,194404842,-120.004784,33.599762,157.117020,-0.634912,-2.476155,10.241245,117.902222,-204.420547,170.510300
867,194421509,-117.499008,37.203190,158.562836,-1.440743,-0.378438,10.508398,101.398720,-167.070465,155.502045
868,194438176,-115.406403,40.335835,159.518936,-2.642957,1.211018,10.168026,90.965103,-124.846199,148.333496
869,194454843,-113.683327,43.093033,159.770691,-2.928812,1.908173,8.064787,94.681473,-80.053940,145.791458
870,194471510,-112.197800,45.470600,159.458084,-2.249313,1.176029,5.569877,103.585175,-44.314476,136.605927