sep=,
DeviceTag:,DOT10
FirmwareVersion:,3.0.0
AppVersion:,2023.6.0
SyncStatus:,Synced
OutputRate:,60Hz
FilterProfile:,Dynamic
Measurement Mode:,Custom modes - custom mode1
StartTime: ,2026-06-02_18:16:34_104 GMT+2
© Movella Technologies B. V. 2005-2026

PacketCounter,SampleTimeFine,Euler_X,Euler_Y,Euler_Z,FreeAcc_X,FreeAcc_Y,FreeAcc_Z,Gyr_X,Gyr_Y,Gyr_Z
1,1859312359,-81.658905,44.175354,-8.616826,0.746948,0.086195,-0.824567,-3.636853,-2.081764,14.204463
2,1859329026,-81.751137,44.380177,-8.580641,0.725447,-0.094137,-0.592797,-5.530221,-0.841954,12.304317
3,1859345693,-81.839516,44.545345,-8.565064,0.802238,-0.230506,-0.524197,-4.438785,-0.320377,9.827064
4,1859362360,-81.928429,44.668884,-8.566166,0.823742,-0.127503,-0.434648,-3.767385,0.017871,7.260799
5,1859379027,-82.019836,44.748177,-8.569085,0.689909,0.000568,-0.393581,-3.842456,-0.287746,4.627658
6,1859395694,-82.148094,44.787537,-8.585392,0.611862,0.125330,-0.327209,-5.487573,-0.059140,2.181274
7,1859412361,-82.270233,44.790878,-8.607804,0.594453,0.168054,-0.174376,-4.865004,-0.098763,0.009944
8,1859429028,-82.360329,44.768196,-8.611369,0.542938,0.057081,-0.084476,-3.738890,-1.102204,-1.424450
9,1859445695,-82.403580,44.728867,-8.573367,0.483868,-0.107102,0.030725,-2.686516,-2.986659,-2.176695
10,1859462362,-82.394310,44.678055,-8.505494,0.407479,-0.096272,0.084059,-0.793712,-4.338728,-2.689641
11,1859479029,-82.316505,44.621807,-8.419474,0.373075,0.036528,0.115683,2.556718,-5.154134,-2.903802
12,1859495696,-82.203018,44.578274,-8.333458,0.332965,0.105729,0.137058,4.700641,-5.057202,-2.140274
13,1859512363,-82.073730,44.550159,-8.247966,0.258619,0.173210,0.082536,5.668994,-4.916346,-1.217602
14,1859529030,-81.943382,44.550106,-8.135490,0.015089,-0.130614,0.247846,4.596565,-5.826699,0.621319
15,1859545697,-81.760956,44.577297,-7.999275,0.118069,-0.282020,0.262215,6.722791,-6.596886,2.396600
16,1859562364,-81.476059,44.623592,-7.852883,0.109552,-0.275613,0.393653,12.439887,-6.846280,3.615037
17,1859579031,-81.103569,44.705441,-7.693615,-0.024224,-0.196808,0.476588,17.145731,-7.037431,5.838915
18,1859595698,-80.675056,44.827213,-7.517179,-0.078555,-0.028249,0.341467,19.769400,-7.329613,8.360007
19,1859612365,-80.237373,44.977665,-7.321945,-0.169999,0.098692,0.110505,19.505768,-7.752058,10.233145
20,1859629032,-79.840225,45.152870,-7.114389,-0.090995,0.029319,0.136429,16.524679,-7.908484,11.828316
21,1859645699,-79.443642,45.356335,-6.894242,0.052684,-0.131580,0.290265,15.925973,-8.014483,13.631928
22,1859662366,-79.004311,45.587803,-6.657842,0.103440,-0.288632,0.271288,17.759363,-8.238816,15.454511
23,1859679033,-78.521065,45.850910,-6.408273,0.267570,-0.392349,0.256905,19.787830,-8.243047,17.473192
24,1859695700,-77.991348,46.141815,-6.159749,0.304295,-0.380418,0.076377,22.570127,-7.654853,19.150194
25,1859712367,-77.464798,46.432064,-5.927886,0.163666,-0.287007,-0.302802,23.053549,-6.758227,19.017218
26,1859729034,-77.001656,46.707260,-5.726031,0.153189,-0.422755,-0.551545,20.508612,-5.538684,17.900118
27,1859745701,-76.627670,46.962616,-5.578451,0.275778,-0.362492,-0.720692,17.497908,-3.471424,16.257072
28,1859762368,-76.373344,47.186848,-5.510943,0.212368,-0.409935,-0.910231,13.811994,-0.609160,13.685313
29,1859779035,-76.265862,47.366268,-5.549057,0.244351,-0.444857,-1.026134,9.650237,2.984784,10.053983
30,1859795702,-76.269157,47.498138,-5.689116,0.388814,-0.651848,-1.134047,7.511677,6.329894,6.299952
31,1859812369,-76.346977,47.590767,-5.945242,0.664016,-0.905789,-1.218358,8.192363,10.322547,2.910277
32,1859829036,-76.435600,47.656864,-6.301130,0.895282,-1.230292,-1.187356,11.982088,13.846259,0.439021
33,1859845703,-76.533005,47.702938,-6.779005,1.092807,-1.470151,-1.287631,16.886942,18.338816,-1.844835
34,1859862370,-76.737930,47.741505,-7.394966,1.155104,-1.537209,-1.544181,16.582664,23.641916,-3.507375
35,1859879037,-77.122742,47.775875,-8.150480,1.110310,-1.539366,-1.670235,12.010589,29.064432,-4.884731
36,1859895704,-77.626495,47.811897,-9.015088,1.360183,-1.665414,-1.495180,9.747293,33.392029,-5.501260
37,1859912371,-78.133545,47.864319,-9.950879,1.365147,-1.748922,-1.222080,12.743340,36.414814,-4.819465
38,1859929038,-78.608932,47.928646,-10.917431,1.196992,-1.745716,-1.045783,16.060188,37.766033,-4.025598
39,1859945705,-79.125275,48.012955,-11.917923,0.985380,-1.635128,-0.772689,15.166818,39.308746,-2.755739
40,1859962372,-79.642792,48.114838,-12.943593,0.593115,-1.265947,-0.168807,16.289486,40.443935,-1.516513
41,1859979039,-80.104973,48.238552,-13.970474,0.056746,-0.845558,0.391940,19.747385,40.642941,0.141082
42,1859995706,-80.554665,48.374847,-14.973834,-0.731330,-0.350082,0.892672,19.535448,39.738194,1.395588
43,1860012373,-80.906921,48.504589,-15.831840,-1.687021,0.249386,1.277709,18.949068,33.848606,2.238587
44,1860029040,-81.099922,48.589298,-16.447460,-2.266637,0.938049,1.854050,17.664219,23.834925,1.241868
45,1860045707,-81.103317,48.608330,-16.748465,-2.550880,1.682667,2.517721,14.900879,10.865656,-0.689303
46,1860062374,-80.852081,48.553310,-16.658205,-2.885955,2.702206,3.165225,12.565055,-5.163588,-2.687658
47,1860079041,-80.225868,48.394642,-16.077534,-3.380132,3.692492,3.603789,13.032989,-25.448952,-5.608006
48,1860095708,-79.161430,48.113693,-14.921231,-3.867622,4.574758,3.980754,13.634262,-49.554073,-8.363534
49,1860112375,-77.567993,47.756699,-13.144059,-4.200972,5.380022,4.352234,17.956455,-75.367599,-6.650826
50,1860129042,-75.359047,47.361591,-10.811908,-5.228899,5.615593,4.982158,30.759310,-98.414452,-1.059176
51,1860145709,-72.574654,46.946003,-7.927125,-6.218576,5.244844,5.257928,41.617054,-121.056541,8.386987
52,1860162376,-69.149132,46.492657,-4.489607,-6.849670,5.462757,5.351015,56.800476,-143.534958,20.458315
53,1860179043,-65.166138,45.959743,-0.676970,-8.091976,6.526274,4.849356,75.177483,-159.281250,31.717649
54,1860195710,-60.990223,45.309067,3.309073,-10.216194,6.717213,5.320745,80.908730,-167.799423,40.604992
55,1860212377,-56.807484,44.492817,7.224656,-11.985567,5.071355,6.083569,86.412270,-168.805573,43.660545
56,1860229044,-52.673653,43.460449,10.857654,-13.491310,2.215581,6.205278,97.911591,-164.883835,39.548733
57,1860245711,-48.631294,42.171940,13.841483,-13.538226,0.217226,5.632450,122.074402,-151.660675,22.982821
58,1860262378,-44.860210,40.769386,15.697831,-13.583656,0.109191,5.073339,153.696472,-119.608788,-4.661520
59,1860279045,-41.854313,39.505753,15.995388,-14.200110,1.302241,4.816705,170.024689,-65.727768,-42.750668
60,1860295712,-40.200832,38.373169,14.286195,-13.928403,-0.099704,2.083606,164.818619,-0.201778,-105.458961
61,1860312379,-39.605671,36.878010,10.636066,-9.889220,-4.011529,-2.816139,170.568176,41.085331,-191.322205
62,1860329046,-38.940510,34.604893,5.239660,-2.868259,-5.669368,-8.094077,230.248795,59.376442,-290.484344
63,1860345713,-38.438038,31.518585,-1.510195,6.936500,-3.678498,-11.114481,252.387650,66.240784,-381.296753
64,1860362380,-39.699512,27.722548,-8.628153,24.837521,-3.510050,-12.109074,136.934952,55.824268,-432.234558
65,1860379047,-42.571388,23.903519,-14.860871,50.810329,-16.633186,-16.789192,-7.760043,47.614483,-404.655670
66,1860395714,-43.856506,22.691761,-18.519188,42.637234,-15.206161,-14.697206,11.283305,83.844887,-196.959686
67,1860412381,-44.474300,23.590136,-19.266857,24.744064,-1.061610,-16.285130,-17.863235,66.384361,7.898058
68,1860429048,-45.578327,25.553347,-16.985373,21.908310,-2.557192,-16.343847,-121.610840,-5.738625,171.349792
69,1860445715,-46.415291,28.103973,-12.631788,18.512739,-5.362271,-8.743105,-166.550812,-62.235004,272.107025
70,1860462382,-47.154030,30.854286,-7.444286,17.753607,-3.842864,-6.418387,-195.895386,-85.333000,305.967438
71,1860479049,-47.651917,33.608109,-2.402369,14.168604,-2.681179,-5.408116,-189.588028,-77.363037,295.099091
72,1860495716,-47.793766,36.247486,1.842347,7.699461,-0.654878,-3.254049,-152.668091,-48.743343,257.999786
73,1860512383,-47.860806,38.613365,5.325293,0.869492,1.521335,-1.504914,-129.345581,-28.450691,217.033066
74,1860529050,-48.198494,40.534981,8.259942,-1.989931,1.732591,0.159905,-130.725372,-24.583485,176.922073
75,1860545717,-48.855255,42.176243,10.607669,-1.532637,0.673908,1.228312,-130.757492,-14.811340,144.242142
76,1860562384,-50.003120,43.847874,12.013268,-2.529857,-0.333661,2.140558,-124.687439,17.550447,116.734230
77,1860579051,-51.696117,45.513798,12.620002,-5.752274,-1.334256,2.846979,-125.461929,42.161087,94.290382
78,1860595718,-53.461128,46.987061,12.928450,-6.718751,-2.421047,3.280466,-117.559563,42.631779,78.384880
79,1860612385,-54.795311,48.328571,12.973063,-5.144716,-2.112414,2.140529,-80.330208,44.732952,66.652275
80,1860629052,-55.802444,49.712311,12.503266,-5.767074,-0.920779,3.059516,-37.455433,61.454681,58.077141
81,1860645719,-56.572441,51.018650,11.793059,-8.851347,0.379232,4.764836,-11.704957,65.165741,50.310352
82,1860662386,-57.020027,52.133804,11.353301,-10.417797,2.157045,4.790492,-4.527005,49.303284,47.268730
83,1860679053,-57.203079,52.995918,11.184602,-10.140848,3.712584,3.930792,-1.313931,32.181206,40.295971
84,1860695720,-57.274685,53.575890,11.060293,-9.717778,4.914435,4.497044,3.285297,21.498192,26.986208
85,1860712387,-57.150562,53.879032,11.069795,-10.058455,5.393137,6.708250,8.560627,8.486031,15.548806
86,1860729054,-56.553566,53.867409,11.411952,-10.320294,5.548356,8.107491,20.783642,-11.588901,6.041953
87,1860745721,-55.251137,53.492981,12.221152,-10.187648,5.623137,7.899656,40.536102,-37.480949,-2.540679
88,1860762388,-53.202515,52.745289,13.514458,-10.252336,5.904207,8.389822,62.327499,-65.075165,-9.296117
89,1860779055,-50.469433,51.633816,15.205729,-10.339429,6.138439,8.730402,85.253387,-91.181793,-14.178966
90,1860795722,-47.173611,50.136929,17.243103,-10.772498,5.073513,10.041615,104.295982,-118.237556,-17.066605
91,1860812389,-43.378525,48.313461,19.407894,-11.092040,3.989781,10.003263,130.678558,-138.333115,-18.344324
92,1860829056,-39.337032,46.280254,21.391737,-12.493588,2.857974,9.815104,156.309525,-146.007492,-20.373928
93,1860845723,-35.492764,44.168442,22.803328,-14.324865,1.752668,9.150455,171.788589,-138.032272,-30.023302
94,1860862390,-32.245003,42.109444,23.074963,-15.979023,0.324491,7.593582,184.949265,-110.417007,-59.456673
95,1860879057,-29.734194,39.942490,21.695328,-16.498070,-0.675265,2.855147,206.177383,-80.592346,-121.021980
96,1860895724,-27.474859,37.258389,18.291246,-12.743503,-0.418170,-3.742618,264.139038,-66.326172,-217.834106
97,1860912391,-25.115770,33.941368,13.117412,-7.195414,-1.385403,-9.444091,323.373993,-67.993256,-315.072205
98,1860929058,-23.368233,29.877802,7.308619,2.803761,-5.530135,-11.559924,290.250458,-102.236473,-370.443542
99,1860945725,-23.300737,25.567204,0.951328,20.042891,-7.606264,-12.116901,182.864731,-105.095901,-412.914215
100,1860962392,-23.843805,21.912241,-5.732028,35.384548,-2.137991,-12.991188,130.367981,-55.502537,-424.438202
101,1860979059,-24.177010,20.141439,-11.694880,46.659973,-1.935383,-18.869385,109.901192,37.572998,-348.515747
102,1860995726,-25.310833,20.814472,-14.907091,32.425007,-3.384062,-17.077961,0.902104,111.150566,-147.228470
103,1861012393,-27.547995,22.798107,-15.290527,23.118853,-0.662745,-17.734064,-124.200943,115.187767,33.775043
104,1861029060,-30.620052,25.131649,-13.125969,17.507507,1.102008,-15.035718,-235.584076,63.882713,171.791794
105,1861045727,-35.044369,27.795191,-9.828287,15.503338,0.041799,-9.364193,-352.087372,37.519012,235.621307
106,1861062394,-40.666477,30.918985,-6.273711,13.311945,-5.134635,-6.424469,-440.267334,33.231464,262.072144
107,1861079061,-45.828751,34.428226,-3.189638,10.855890,-8.151329,-2.582254,-407.995850,45.978149,258.095581
108,1861095728,-49.471767,38.168121,-0.965040,5.909605,-6.389161,-0.538017,-295.952057,70.984756,238.717438
109,1861112395,-51.700603,41.504070,0.814625,0.652166,-3.113897,-0.053143,-200.493637,63.019150,207.132584
110,1861129062,-53.082764,44.316521,2.435811,0.856725,-2.315646,0.660625,-147.521637,45.775276,177.604187
111,1861145729,-53.765602,46.760368,3.444352,1.287062,-1.767827,2.007085,-82.524765,52.540485,143.471878
112,1861162396,-54.339088,48.933723,3.383077,-0.324129,-0.036254,2.437910,-30.046362,77.735756,104.592163
113,1861179063,-55.547962,50.750446,2.431682,-4.225990,-0.322941,2.849523,-27.274645,91.917206,68.554039
114,1861195730,-56.966068,52.002583,1.279223,-6.616313,-2.543875,5.133545,-29.451046,76.770813,38.947746
115,1861212397,-57.606575,52.541546,0.157944,-6.193136,-4.444842,5.950520,16.383478,51.228172,5.384235
116,1861229064,-57.467083,52.481331,-1.075512,-6.137598,-2.271330,5.279206,68.704048,35.148777,-26.822029
117,1861245731,-57.163189,51.978508,-2.292950,-8.283959,1.072860,6.480288,77.584122,20.431751,-49.181728
118,1861262398,-56.846596,51.179920,-3.230968,-10.855420,3.320821,7.857475,64.691628,2.298770,-58.909878
119,1861279065,-56.645924,50.194874,-4.001594,-11.523474,4.221067,6.195297,49.401833,-8.868353,-65.233360
120,1861295732,-56.420620,49.119740,-4.489832,-10.811381,3.629822,5.674190,37.416710,-20.728086,-64.087372
121,1861312399,-55.642807,48.117199,-4.605219,-10.316107,3.579811,7.039110,53.421432,-30.807545,-52.329010
122,1861329066,-53.787750,47.432205,-4.048478,-11.349132,4.131573,8.589872,88.110756,-43.079403,-20.528675
123,1861345733,-50.901367,47.034096,-2.586920,-11.871697,5.438902,7.772776,110.329369,-62.772007,17.451742
124,1861362400,-47.275425,46.747433,-0.301942,-11.674568,6.460176,6.558180,118.961472,-83.129784,48.274582
125,1861379067,-43.163067,46.476967,2.537197,-10.764205,7.760295,5.563660,124.400642,-95.572807,70.753159
126,1861395734,-38.822300,46.159031,5.656159,-10.026892,7.427722,5.184169,126.517982,-100.281708,84.818993
127,1861412401,-34.372639,45.762611,8.948031,-9.821876,5.652422,5.749228,126.355865,-102.069839,95.772644
128,1861429068,-29.842295,45.282234,12.222806,-10.275157,4.511617,6.502192,132.942947,-98.729805,100.963417
129,1861445735,-25.382633,44.800415,15.305378,-11.832819,3.635235,7.600395,137.982834,-87.373764,102.039948
130,1861462402,-21.307209,44.474758,17.908344,-13.972785,2.149658,8.918213,136.048355,-63.209591,93.883232
131,1861479069,-18.312847,44.274479,19.364143,-18.086727,2.303406,6.938072,119.811844,-33.764843,54.218620
132,1861495736,-17.094854,43.737171,18.787962,-19.259586,0.792995,2.836344,98.296257,-24.537275,-33.991268
133,1861512403,-17.212469,42.513187,15.667346,-15.950346,-2.475883,-3.147676,122.119385,-31.343267,-152.774109
134,1861529070,-18.097099,40.152641,10.290132,-8.652526,-5.674530,-7.438148,161.242935,-62.991604,-274.319672
135,1861545737,-19.503946,36.776722,3.244721,4.357198,-4.040341,-8.697313,179.934875,-86.513046,-379.035767
136,1861562404,-21.542223,32.759789,-5.198993,18.755127,-1.417274,-12.711591,168.239883,-81.072632,-474.538483
137,1861579071,-23.878626,27.801794,-13.495665,40.262844,-5.284247,-22.755695,112.632751,-109.513023,-511.603577
138,1861595738,-25.736509,24.032385,-18.867895,60.102554,-18.038483,-24.283897,31.055944,-84.852219,-358.296417
139,1861612405,-26.903023,23.092552,-20.975426,29.776566,-4.909646,-12.004356,-17.908024,-0.193336,-129.007599
140,1861629072,-28.262291,23.930025,-19.641407,23.852850,-0.084504,-19.116314,-111.982071,9.660069,88.275703
141,1861645739,-29.685820,25.499577,-15.786156,16.876947,-1.480369,-13.044621,-180.618912,-20.214527,229.454010
142,1861662406,-31.471125,27.470730,-10.927243,18.141920,-3.466873,-5.742008,-235.590302,-31.704134,284.882111
143,1861679073,-34.348873,29.855936,-6.168074,15.927909,-3.295336,-3.533429,-308.018433,-16.724663,288.276398
144,1861695740,-37.579269,32.540592,-2.128923,9.299191,-4.446558,-2.046201,-317.720428,7.934446,262.648163
145,1861712407,-40.341152,35.183792,1.085395,2.065928,-2.534030,-0.878812,-271.523254,21.929913,224.547958
146,1861729074,-42.677769,37.385395,3.910448,-0.271835,-0.876277,0.014523,-238.853134,7.637164,190.170959
147,1861745741,-44.493477,39.289490,6.342716,1.265886,-0.870211,2.467138,-197.816132,3.061954,161.981552
148,1861762408,-45.826408,41.200878,7.758122,-0.503359,-0.984154,5.249318,-133.200272,34.102161,127.327309
149,1861779075,-47.189465,43.116234,8.168205,-5.825127,-1.868723,5.314309,-96.666214,65.029816,96.218353
150,1861795742,-48.772900,44.774990,8.066905,-7.433418,-2.917318,3.826172,-89.160141,68.997238,71.268936
151,1861812409,-50.038998,46.027771,7.925944,-5.361288,-3.672240,2.426335,-68.329208,52.497528,53.435665
152,1861829076,-50.639988,46.946075,7.641016,-4.527300,-1.766057,3.581972,-22.049606,43.270050,35.097656
153,1861845743,-50.538166,47.600407,7.210353,-6.497857,1.492241,7.061954,26.690441,37.491310,19.366234
154,1861862410,-50.305172,48.098412,6.719152,-7.877444,3.285707,6.142494,37.412373,33.291252,10.554226
155,1861879077,-50.234505,48.392155,6.266618,-6.354535,2.785122,4.960349,26.057449,24.172281,2.076745
156,1861895744,-49.668591,48.443272,5.969453,-5.025910,2.060908,5.693118,48.834995,10.026174,-5.223167
157,1861912411,-48.191059,48.400475,6.011496,-6.427567,3.507978,7.515814,88.292984,-3.959038,-0.822331
158,1861929078,-46.053665,48.364208,6.358953,-8.009613,5.574920,8.249577,114.171150,-12.638537,7.804920
159,1861945745,-43.813770,48.382301,6.830218,-8.990412,7.252315,6.737335,114.750252,-13.511370,14.001061
160,1861962412,-41.559830,48.417622,7.535306,-9.495524,6.897158,5.882915,105.067368,-18.502750,21.978065
161,1861979079,-38.831337,48.326073,8.725540,-10.028452,6.416582,5.962212,111.772392,-35.838665,32.547096
162,1861995746,-35.611717,48.018478,10.422205,-11.084570,7.131376,6.503305,118.739975,-56.796707,42.713154
163,1862012413,-32.168083,47.440411,12.388200,-11.143353,7.538634,6.350533,120.717491,-74.081039,46.306053
164,1862029080,-28.691648,46.617878,14.306414,-10.996292,8.374606,5.930473,125.733788,-83.348541,42.397278
165,1862045747,-25.530079,45.607441,15.860697,-12.471786,8.413412,6.154678,123.818657,-84.501320,29.639750
166,1862062414,-22.729757,44.523312,16.960056,-14.676008,6.790593,6.643661,122.634285,-79.504341,15.615298
167,1862079081,-20.358513,43.418900,17.347618,-17.004978,4.961194,4.993535,127.420853,-68.904953,-9.103327
168,1862095748,-18.609295,42.069839,16.666834,-19.420471,2.397985,2.552517,133.946976,-67.468063,-55.638783
169,1862112415,-17.379614,40.278835,14.471994,-18.633026,-1.856183,-0.299511,161.733673,-72.789963,-127.849297
170,1862129082,-16.136816,37.940014,10.662651,-14.977535,-2.714498,-3.503969,219.996674,-84.469734,-210.662170
171,1862145749,-14.744922,35.037560,5.150150,-8.920951,-0.586059,-5.770836,281.452026,-98.280502,-303.058960
172,1862162416,-13.711528,31.799417,-1.948329,0.728568,0.601566,-7.393341,297.861481,-102.092667,-392.682343
173,1862179083,-13.444597,28.387556,-10.282237,11.102846,-1.893046,-11.082948,268.123413,-98.441917,-468.860138
174,1862195750,-13.990251,24.079714,-18.946884,26.079840,-9.368176,-16.225405,198.617004,-141.346420,-514.531189
175,1862212417,-15.434902,20.145824,-26.369909,57.054913,-27.368408,-19.286549,82.615295,-124.409615,-459.184601
176,1862229084,-17.586174,19.976727,-30.278385,40.517471,-15.481929,-9.285247,-47.098709,51.801338,-214.214661
177,1862245751,-21.022068,22.035021,-31.452147,22.367897,3.114305,-14.681936,-179.403030,137.339981,-21.332256
178,1862262418,-25.383326,23.922142,-29.234522,11.971181,4.672766,-16.530144,-312.125000,54.897694,157.155518
179,1862279085,-29.481297,25.559504,-25.025183,10.572339,-2.909018,-9.243561,-350.041718,-19.421202,248.837402
180,1862295752,-33.439308,27.568096,-19.920734,14.488132,-9.550427,-3.061731,-372.860260,-41.140099,296.598694
181,1862312419,-37.513115,30.071165,-14.847981,15.667772,-9.980014,-1.494428,-389.526825,-33.422592,304.392151
182,1862329086,-40.473206,32.734306,-10.191146,10.860323,-6.902111,-2.467641,-321.608826,-26.811949,285.963074
183,1862345753,-42.149509,35.311253,-6.143541,6.220227,-3.697163,-2.448399,-234.901169,-17.649893,253.303040
184,1862362420,-42.808327,37.474091,-2.618956,4.034963,-2.293592,-1.364538,-163.471359,-20.166285,213.244690
185,1862379087,-42.661415,39.321468,0.392660,3.677742,-1.283036,0.766997,-101.887085,-15.595080,179.292435
186,1862395754,-42.401031,41.188576,2.443336,1.366187,-0.932334,2.034693,-62.345669,18.168711,144.992920
187,1862412421,-42.799633,42.990898,3.413467,-2.785902,-0.345357,2.513359,-61.389107,49.451756,105.065300
188,1862429088,-43.851978,44.414204,3.725592,-6.128562,-1.220788,3.286900,-74.541199,51.908733,68.513306
189,1862445755,-44.910980,45.290310,3.743925,-6.725620,-2.453021,3.646850,-62.781029,36.079590,37.375546
190,1862462422,-45.868073,45.793579,3.254149,-5.189065,-0.880221,3.927424,-34.917637,34.894119,7.079189
191,1862479089,-46.812290,46.139717,2.260926,-7.160858,1.547033,7.343065,-12.282781,43.328728,-13.549121
192,1862495756,-47.929657,46.480438,0.999063,-9.075364,3.170309,7.140985,-10.776459,51.336788,-20.371607
193,1862512423,-49.378792,46.811371,-0.444854,-8.442213,2.963630,5.544967,-22.443825,56.769783,-24.400806
194,1862529090,-50.611420,46.995060,-1.844093,-7.425118,2.356148,6.269079,-11.154120,50.015652,-28.469900
195,1862545757,-50.887810,47.049999,-2.805912,-7.607558,3.803384,8.872835,27.134672,31.539972,-22.396368
196,1862562424,-50.149250,47.098347,-3.217821,-8.027333,6.932948,9.304249,63.891685,13.817498,-8.535676
197,1862579091,-48.817207,47.201248,-3.045416,-7.944829,8.811416,7.538298,73.811775,-2.355018,9.165267
198,1862595758,-46.824375,47.300774,-2.171177,-8.105628,8.504442,6.546171,82.509560,-23.395069,28.212534
199,1862612425,-43.986782,47.255493,-0.442183,-9.460499,8.014848,5.576369,95.481514,-53.046360,47.335777
200,1862629092,-40.683533,46.912739,1.986673,-10.441075,7.198757,4.571384,92.887024,-83.053879,59.341648
201,1862645759,-37.239582,46.234245,4.663774,-9.958786,7.105912,3.070472,91.381950,-102.111359,60.077240
202,1862662426,-33.927830,45.275272,7.253110,-10.427396,7.703432,2.549763,88.797150,-110.901817,54.479450
203,1862679093,-31.034512,44.117531,9.641134,-11.856681,7.725743,2.291193,74.196777,-114.331566,48.399498
204,1862695760,-28.589666,42.792503,11.825807,-13.112539,6.804661,1.696876,57.896591,-117.334335,42.803425
205,1862712427,-26.526314,41.290146,13.607683,-13.741886,5.528967,0.876741,53.551548,-117.712669,28.440107
206,1862729094,-24.822725,39.622681,14.816332,-15.397490,4.391059,0.186734,56.495300,-115.160912,6.121733
207,1862745761,-23.526682,37.789001,15.240760,-16.621420,2.734417,0.194069,63.161621,-109.617790,-27.202534
208,1862762428,-22.733940,35.782116,14.334394,-16.103174,1.743139,-0.808889,81.447906,-94.754440,-87.646584
209,1862779095,-22.686760,33.386936,11.787286,-14.796591,1.378530,-5.176000,90.899139,-85.129112,-171.844116
210,1862795762,-23.092495,30.376358,7.725238,-10.204860,-1.976434,-9.681987,105.725624,-87.027931,-261.201660
211,1862812429,-22.629248,26.615002,2.402833,-3.957333,-4.477662,-11.555125,181.483124,-99.980240,-346.567444
212,1862829096,-21.070112,22.335060,-3.963862,4.786438,-3.234817,-10.802579,253.083298,-109.942543,-418.570648
213,1862845763,-19.440744,18.140015,-11.040087,18.069881,-2.285744,-5.947074,245.907379,-99.150841,-461.156464
214,1862862430,-18.659988,14.235238,-18.235918,34.632915,-9.850371,-4.689103,168.581711,-87.030945,-468.603271
215,1862879097,-19.041819,12.102758,-23.801979,53.478058,-26.030325,-6.176801,54.653015,-17.064760,-349.274445
216,1862895764,-20.336870,12.921689,-26.401766,32.231194,-12.406962,-3.667997,-42.430763,96.509773,-126.967812
217,1862912431,-23.250530,15.090251,-26.367266,25.458735,-0.446989,-9.558679,-173.835052,119.091278,50.056297
218,1862929098,-27.492331,17.379711,-23.826960,18.473204,-2.113236,-8.686984,-295.599640,60.462975,191.029572
219,1862945765,-32.242863,19.646557,-20.131098,13.597772,-5.670778,-4.010673,-353.877502,12.263229,250.093506
220,1862962432,-37.235443,22.064337,-16.125502,11.725777,-7.043073,-1.029641,-383.510712,-9.733858,267.267334
221,1862979099,-41.588795,24.659740,-12.337072,9.241703,-6.603315,-0.905165,-349.743866,-13.128496,260.132690
222,1862995766,-44.973366,27.339994,-8.948714,6.338035,-4.733937,-1.249670,-290.628357,-9.149189,243.313660
223,1863012433,-47.371258,29.891588,-6.073244,4.706348,-3.329988,-0.829247,-224.951614,-4.176452,215.345001
224,1863029100,-48.688129,32.268929,-3.713014,4.030563,-2.382946,0.413362,-150.591721,4.278147,187.182739
225,1863045767,-48.905788,34.381996,-1.795627,2.723268,-2.092369,1.229484,-74.750793,10.251683,158.739441
226,1863062434,-48.596802,36.384224,-0.422243,1.485255,-2.591575,1.187989,-27.660362,27.756384,134.650742
227,1863079101,-48.461212,38.423313,0.253981,-1.272885,-2.222173,1.522288,-14.985151,55.933662,113.053131
228,1863095768,-48.480556,40.248566,0.366189,-4.724218,-2.318475,3.076524,-3.901977,67.764381,85.473709
229,1863112435,-48.267284,41.706554,0.284819,-7.153575,-2.757545,3.327813,17.520947,59.906811,62.972336
230,1863129102,-47.854504,42.772865,-0.067541,-7.184041,-1.392885,2.172973,40.502808,53.431698,37.151646
231,1863145769,-47.877647,43.660488,-0.973033,-6.787889,1.114324,2.601480,37.335526,64.108421,12.941939
232,1863162436,-48.490643,44.530941,-2.158771,-8.410682,3.400416,4.186906,14.245368,71.912750,4.855972
233,1863179103,-49.502487,45.366505,-3.339580,-9.574874,4.620526,4.784624,-9.146827,69.735588,4.917206
234,1863195770,-50.731560,46.125725,-4.598036,-9.087499,5.006046,4.066416,-18.157104,68.638924,1.130648
235,1863212437,-51.848568,46.742542,-5.832544,-8.590728,5.740719,5.473672,-11.858385,61.965725,-3.101459
236,1863229104,-52.171902,47.205833,-6.648184,-9.035408,7.457238,7.473032,17.859900,42.411095,1.279908
237,1863245771,-51.562126,47.504864,-6.772217,-9.438777,9.279118,7.385731,43.531353,14.025848,10.905056
238,1863262438,-50.018009,47.572765,-6.093533,-9.392562,9.759954,6.587618,64.068886,-19.743521,20.414721
239,1863279105,-47.424786,47.360580,-4.491886,-9.512393,9.751656,5.611341,86.225220,-58.240601,33.147522
240,1863295772,-44.131458,46.796909,-2.192499,-9.574678,9.987810,4.396504,97.988838,-91.939987,41.123947
241,1863312439,-40.683723,45.886688,0.422835,-9.175341,10.304526,3.733196,94.732094,-114.404434,42.975628
242,1863329106,-37.504425,44.666264,3.030592,-9.574337,10.013123,3.980843,80.966888,-127.280396,39.071503
243,1863345773,-34.815739,43.241608,5.373386,-10.654117,9.169700,3.473756,65.117989,-129.749878,31.042732
244,1863362440,-32.638100,41.691582,7.321018,-12.739591,8.211268,2.233134,53.111233,-126.248520,19.813641
245,1863379107,-30.797743,39.918846,8.823556,-15.532019,6.376664,1.753018,52.840488,-127.407387,1.866017
246,1863395774,-29.079056,37.834064,9.651065,-17.737339,3.390316,1.697561,73.276886,-128.762543,-29.218269
247,1863412441,-27.360695,35.420795,9.364613,-18.160786,0.847480,-0.849075,114.652321,-122.179695,-80.926468
248,1863429108,-25.726780,32.564682,7.654549,-16.056753,-1.506882,-5.379431,156.683014,-116.431747,-153.006760
249,1863445775,-23.788469,29.069777,4.595057,-12.236178,-3.718868,-9.507545,211.605072,-125.556091,-231.320267
250,1863462442,-20.747076,24.820637,0.315728,-6.796123,-4.063332,-11.642562,300.021606,-150.355484,-308.805145
251,1863479109,-16.621424,20.184076,-5.199377,1.423180,-1.174385,-9.336718,375.263519,-166.719208,-379.165955
252,1863495776,-12.829696,16.103683,-11.932689,12.611039,1.018012,-3.643822,354.381622,-140.252991,-433.949646
253,1863512443,-10.595807,12.603228,-19.587275,25.735622,-5.788659,-3.714398,249.080383,-116.316086,-478.596161
254,1863529110,-10.528440,10.259732,-26.677902,49.919685,-24.919426,-7.495123,89.798035,-62.844837,-435.893951
255,1863545777,-12.318010,11.238354,-30.459547,42.598885,-24.891806,-6.428683,-63.558804,100.560074,-207.029419
256,1863562444,-16.033016,14.163347,-31.753611,25.253109,-3.001369,-7.620709,-204.303482,187.706360,-30.599955
257,1863579111,-21.891850,16.979048,-30.446297,19.381796,3.009911,-12.729620,-371.050812,134.309174,126.297012
258,1863595778,-28.857939,19.539436,-27.479223,13.231259,-2.428877,-9.350031,-472.160553,65.435028,218.631989
259,1863612445,-36.395187,22.226013,-23.893600,9.843753,-7.160012,-5.248389,-527.288818,26.434164,256.353699
260,1863629112,-44.100185,25.177282,-20.404791,8.404326,-8.911518,-2.255075,-544.777954,10.375364,260.884216
261,1863645779,-50.607559,28.281313,-17.261688,6.110604,-8.309470,-0.943686,-473.635254,1.325193,251.251129
262,1863662446,-55.152752,31.266666,-14.515704,4.811887,-5.439558,0.160745,-352.948639,-6.888675,229.208008
263,1863679113,-57.886440,33.972198,-12.147471,4.296323,-2.626935,1.968751,-239.082886,-11.231817,201.461411
264,1863695780,-59.046787,36.420757,-10.199070,2.922103,-1.185748,2.877226,-135.493729,-5.552040,175.213867
265,1863712447,-59.313042,38.775726,-8.731053,1.788890,-1.546546,2.214897,-68.216133,11.497576,157.129486
266,1863729114,-59.431137,41.168766,-7.976522,-0.088076,-2.755663,3.095383,-34.671242,42.328571,141.261810
267,1863745781,-59.341942,43.433094,-7.764318,-3.824378,-3.417762,4.774075,-1.717878,60.108116,121.753082
268,1863762448,-58.652988,45.317570,-7.580747,-6.851111,-2.571891,4.557750,35.133511,50.507587,100.996300
269,1863779115,-57.473801,46.753330,-7.292068,-6.234391,-1.267742,2.681592,59.783176,34.371155,79.477814
270,1863795782,-56.251415,47.942051,-7.202777,-5.274129,0.402835,2.263489,70.900551,34.947056,61.705151
271,1863812449,-55.334362,48.984814,-7.325979,-6.707246,2.564446,3.150450,62.054543,38.219631,48.972237
272,1863829116,-54.884739,49.946442,-7.549396,-7.569518,3.329898,2.901235,38.656216,39.136463,42.310341
273,1863845783,-54.823174,50.766666,-7.881835,-7.541309,3.061580,2.127570,20.543728,37.718437,32.862988
274,1863862450,-54.920555,51.347115,-8.315489,-7.503503,3.244205,2.785093,15.876183,32.391979,19.004305
275,1863879117,-54.709549,51.706715,-8.559301,-7.645420,5.058331,4.934703,25.593880,18.842846,12.305512
276,1863895784,-53.768120,51.969250,-8.334140,-7.900807,7.402997,6.720552,47.335712,1.400124,17.556952
277,1863912451,-52.210327,52.207916,-7.505146,-8.297017,9.311249,6.335979,55.687622,-16.816950,29.707779
278,1863929118,-49.953159,52.321468,-5.932624,-8.773215,9.287194,5.625146,62.262619,-41.680462,41.431252
279,1863945785,-46.774467,52.132080,-3.513729,-8.949253,8.682878,5.750102,77.430832,-75.022202,50.405987
280,1863962452,-42.912380,51.547848,-0.498096,-8.506806,8.155369,5.540092,90.864929,-104.712387,54.363739
281,1863979119,-38.819408,50.619793,2.654451,-7.575850,8.052923,4.843987,99.791359,-120.878052,53.232067
282,1863995786,-34.819843,49.380642,5.588161,-7.636876,8.130792,4.300520,106.507660,-128.349106,45.814545
283,1864012453,-31.146414,47.814331,8.191528,-8.901424,7.397949,4.110071,104.604851,-136.098831,35.277565
284,1864029120,-27.779968,45.956841,10.418847,-9.678936,6.436256,3.748892,105.781494,-142.999908,24.480597
285,1864045787,-24.617430,43.931576,12.222142,-10.825756,5.556816,3.555898,114.659317,-143.896713,14.830362
286,1864062454,-21.773531,41.782005,13.519524,-12.468732,4.672232,2.473071,119.019691,-142.096863,1.406352
287,1864079121,-19.283510,39.400986,14.191132,-14.627459,2.864236,1.527663,124.507614,-145.611328,-21.695744
288,1864095788,-16.968239,36.780323,13.959964,-16.434937,0.292858,0.208526,148.786453,-147.159882,-59.554817
289,1864112455,-14.662342,33.858532,12.481369,-15.769536,-1.063472,-2.351118,190.945419,-150.087097,-117.696594
290,1864129122,-12.377603,30.630640,9.524182,-12.740092,-0.510558,-7.371730,233.039993,-154.369995,-191.475967
291,1864145789,-9.883546,26.929893,5.145778,-7.866734,-1.692558,-11.298980,277.374725,-174.541809,-269.088806
292,1864162456,-6.560557,22.786512,-0.450422,0.208057,-2.711423,-11.214619,341.701599,-203.562195,-337.447113
293,1864179123,-2.908948,19.044231,-7.069958,11.712053,-1.189190,-6.040445,362.004059,-194.194748,-388.654419
294,1864195790,-0.583889,16.145660,-14.363186,24.333038,-3.371028,-2.966396,272.999817,-162.128006,-422.488739
295,1864212457,-0.863361,13.968677,-21.387815,42.361927,-13.255470,-7.270806,94.185234,-126.470734,-408.790344
296,1864229124,-3.929222,13.919916,-25.924561,47.963585,-19.536039,-10.715087,-116.823364,7.031533,-264.215515
297,1864245791,-9.203008,16.148911,-27.976175,28.455994,-5.823707,-10.210183,-282.974030,145.477356,-102.986931
298,1864262458,-16.517420,18.958752,-27.636658,22.197491,2.423563,-14.429176,-443.480164,159.187057,56.371807
299,1864279125,-25.356861,21.776642,-25.493525,15.368674,-1.729761,-11.389040,-573.536316,114.011429,173.092041
300,1864295792,-34.938534,24.820934,-22.499695,10.354889,-7.671626,-6.990156,-644.280212,74.243538,234.635635
301,1864312459,-44.582867,28.114769,-19.466120,7.593157,-9.679504,-4.719186,-658.086792,46.819794,251.959610
302,1864329126,-52.753685,31.474512,-16.778883,5.878215,-9.428728,-2.984212,-568.697327,27.152737,243.986923
303,1864345793,-58.796108,34.612373,-14.515512,4.563166,-7.234253,-0.406196,-435.003784,10.819036,219.813446
304,1864362460,-62.970676,37.387096,-12.669875,4.107208,-4.717386,2.704258,-314.026428,1.770061,189.102585
305,1864379127,-65.473091,39.855251,-11.298611,2.736741,-3.400804,3.741207,-199.985397,5.547946,161.338898
306,1864395794,-66.443840,42.164669,-10.301579,2.653783,-4.107840,3.828516,-96.005714,14.242258,144.957520
307,1864412461,-66.380119,44.323605,-9.755790,1.812744,-4.255554,2.185222,-17.123713,28.986462,128.280975
308,1864429128,-65.795525,46.198700,-9.789918,-0.726543,-3.960567,2.183133,38.015251,45.927837,102.290627
309,1864445795,-64.961815,47.672382,-10.416536,-4.711072,-3.231886,3.333646,78.979973,59.181179,69.712776
310,1864462462,-63.980328,48.637756,-11.352482,-6.765673,-3.059368,4.759122,102.214165,57.768223,36.139557
311,1864479129,-62.844265,49.150860,-12.347200,-6.985061,-2.019644,4.260669,114.626747,47.863819,9.973971
312,1864495796,-61.884083,49.258816,-13.446333,-7.287601,0.648685,4.002604,109.029274,40.165359,-14.249366
313,1864512463,-61.333576,49.073429,-14.605424,-8.740476,3.470961,5.302291,87.137581,33.700531,-31.423080
314,1864529130,-61.139442,48.736179,-15.665901,-9.585506,5.203126,5.844253,61.086876,25.910191,-37.897598
315,1864545797,-61.062500,48.337379,-16.544491,-9.290575,5.486701,5.673664,45.604187,17.975426,-37.867489
316,1864562464,-60.496132,47.901108,-17.093561,-8.594588,5.737461,6.919432,59.989574,5.392915,-33.654163
317,1864579131,-58.844109,47.495041,-17.093367,-8.787397,7.799842,9.187830,100.586235,-13.335923,-21.116331
318,1864595798,-55.980225,47.106033,-16.334253,-9.558351,10.634875,8.970169,139.823120,-39.626659,-3.137405
319,1864612465,-52.401859,46.726833,-14.677323,-10.062970,12.470058,6.208355,143.545227,-69.411758,21.148165
320,1864629132,-48.229839,46.217819,-12.266886,-9.742608,12.620319,4.273634,146.886459,-97.187485,39.947861
321,1864645799,-43.732170,45.430511,-9.398637,-9.697887,12.801490,3.510721,147.834061,-120.095833,49.195709
322,1864662466,-39.496590,44.318565,-6.361798,-10.046053,11.934269,3.642236,126.952797,-136.660538,52.043880
323,1864679133,-35.614357,42.988964,-3.338536,-10.374038,10.452121,3.271926,109.078041,-144.270645,55.217148
324,1864695800,-31.920168,41.505993,-0.474441,-11.443520,9.436993,2.857681,107.464752,-145.711105,56.075367
325,1864712467,-28.422102,39.824444,2.083718,-13.457032,8.584262,3.017413,111.201088,-146.790070,49.714909
326,1864729134,-25.209938,37.914223,4.091544,-16.291300,6.055781,2.487767,118.456802,-145.673218,31.763750
327,1864745801,-22.241896,35.686611,5.209521,-18.263481,1.589167,0.230525,139.217941,-145.076462,-4.856976
328,1864762468,-19.154669,33.007915,5.073203,-16.576035,-1.722273,-3.565657,191.154694,-149.108414,-63.387203
329,1864779135,-15.648669,29.883198,3.409886,-12.765874,-1.566727,-6.706077,263.708435,-154.618179,-137.599670
330,1864795802,-11.835236,26.348270,0.162099,-8.299541,-0.972153,-8.528198,321.882996,-166.375732,-217.653961
331,1864812469,-7.924316,22.585123,-4.597722,-1.413927,-2.311275,-8.131868,354.125000,-178.979172,-295.177216
332,1864829136,-4.357364,19.123341,-10.694304,8.512230,-1.537766,-6.446193,345.398315,-171.025269,-362.423645
333,1864845803,-2.021675,16.382626,-17.779440,22.209770,-3.190153,-4.256123,270.995575,-142.682053,-413.651886
334,1864862470,-2.068076,14.457130,-24.800072,38.434177,-12.219214,-6.159650,110.659790,-101.987442,-410.109283
335,1864879137,-5.458866,14.349171,-29.661470,49.503166,-21.416080,-10.175009,-129.338623,10.983067,-282.485107
336,1864895804,-11.683206,16.517017,-32.231129,29.932659,-12.173206,-11.671545,-330.884552,149.788269,-127.773521
337,1864912471,-19.191923,19.518734,-32.438015,24.041258,-6.866921,-16.913572,-445.140686,175.904007,36.454651
338,1864929138,-27.630466,22.712900,-30.816824,16.909128,-6.271255,-13.034868,-539.767151,139.010391,159.479141
339,1864945805,-37.028778,25.955866,-28.475782,9.641403,-8.300021,-7.487370,-620.137756,95.147583,212.409042
340,1864962472,-46.741970,29.393799,-26.199690,6.660650,-9.296825,-4.258408,-644.538574,71.992386,228.014343
341,1864979139,-55.280983,32.824905,-24.359049,3.683203,-8.565348,-2.816487,-567.756897,55.153114,219.709518
342,1864995806,-61.903591,36.076599,-22.931839,0.800839,-7.052676,0.083148,-444.211517,40.477551,203.438766
343,1865012473,-66.340652,38.956226,-21.830467,0.074867,-6.016448,3.027471,-304.935608,27.284454,178.384933
344,1865029140,-68.650352,41.576225,-21.022348,1.012918,-4.694772,3.746741,-168.413879,25.007723,159.408920
345,1865045807,-69.442451,44.030502,-20.618771,1.720643,-3.223622,2.195190,-62.489853,35.074646,143.880264
346,1865062474,-69.631905,46.271549,-20.727541,0.880673,-2.243705,1.699292,-5.258187,50.321644,124.377243
347,1865079141,-69.663376,48.193054,-21.396135,-2.256400,-2.589971,2.440701,29.043024,64.635162,98.625908
348,1865095808,-69.572113,49.684315,-22.408619,-5.232000,-1.951332,3.895314,52.760891,67.563637,69.975418
349,1865112475,-69.296936,50.675732,-23.585867,-6.990403,-0.209353,4.835201,72.241768,62.235352,39.799515
350,1865129142,-68.960098,51.230885,-24.758371,-7.249995,1.291670,4.468579,76.325333,52.263161,15.315541
351,1865145809,-68.809509,51.466793,-26.076357,-5.994136,2.606984,4.211787,72.271561,50.156040,-4.617904
352,1865162476,-68.798981,51.525536,-27.499220,-6.029229,4.283961,5.359476,68.915108,49.807674,-15.972385
353,1865179143,-68.733154,51.515415,-28.755138,-7.262669,5.692575,6.143032,64.412788,42.464672,-17.602730
354,1865195810,-68.400352,51.455338,-29.684978,-7.840298,5.697019,6.726578,65.089470,29.998375,-16.122208
355,1865212477,-67.250183,51.414967,-30.066521,-7.731247,6.212453,7.350811,88.376732,11.280002,-7.718541
356,1865229144,-64.995842,51.465385,-29.698896,-7.648617,8.482146,7.882772,119.474152,-12.375124,8.226264
357,1865245811,-61.877609,51.612995,-28.544756,-7.777256,10.520360,7.380688,134.329773,-35.592285,27.060406
358,1865262478,-58.067120,51.831341,-26.403093,-8.434335,11.408853,6.630846,129.193436,-63.396812,51.033298
359,1865279145,-53.376293,51.993984,-23.158953,-9.101555,11.175875,5.913631,129.661865,-94.752480,75.518646
360,1865295812,-48.027470,51.939369,-19.149174,-9.099088,10.751908,4.674395,132.820312,-117.811760,91.154579
361,1865312479,-42.556423,51.592442,-14.863841,-8.892822,10.315936,3.738375,127.662315,-128.760513,96.944992
362,1865329146,-37.302952,50.936081,-10.556824,-9.370618,9.000731,3.986564,114.981689,-135.011124,98.504143
363,1865345813,-32.359112,50.015057,-6.449242,-10.707383,7.438096,4.292722,107.873512,-135.969650,96.955093
364,1865362480,-27.770029,48.898964,-2.798616,-11.595761,6.292529,4.265709,110.237320,-130.329636,89.437325
365,1865379147,-23.678617,47.573723,0.127325,-12.796981,5.411322,3.856194,115.882523,-123.455292,70.584114
366,1865395814,-20.365965,45.998348,2.008312,-14.281427,4.186835,3.213566,117.858620,-117.700691,35.940830
367,1865412481,-17.809551,44.095280,2.613344,-15.360050,1.480215,1.267385,129.043076,-117.422234,-13.367534
368,1865429148,-15.759844,41.738567,1.753752,-14.624454,-1.619341,-2.325829,159.442245,-125.629898,-77.266869
369,1865445815,-13.903744,38.698689,-0.617394,-12.032821,-2.036203,-6.607786,204.566223,-149.676651,-151.981689
370,1865462482,-12.261231,34.973545,-4.542137,-7.488856,-1.234038,-10.326632,241.062271,-176.186188,-234.450729
371,1865479149,-10.473305,30.627132,-10.029621,0.346308,-0.946013,-11.004604,286.952820,-202.176620,-323.026886
372,1865495816,-8.863326,26.126270,-16.781967,11.406403,-1.336185,-8.582204,290.466583,-207.296646,-397.046997
373,1865512483,-8.668406,21.920851,-24.226549,26.592651,-7.843000,-7.119844,194.994919,-188.057922,-441.892761
374,1865529150,-10.761646,18.776232,-30.636137,48.628128,-22.029770,-10.430389,9.749015,-126.084023,-387.402283
375,1865545817,-14.589187,18.155140,-34.019833,39.592384,-23.443882,-11.393656,-163.829895,4.831624,-196.217819
376,1865562484,-19.233631,19.782734,-34.901566,23.234905,-7.778306,-15.154728,-259.989532,107.010567,-19.597704
377,1865579151,-24.328615,22.079962,-33.131828,19.560734,-4.348273,-18.247204,-342.126007,90.255379,143.187592
378,1865595818,-29.642117,24.653149,-29.520184,13.861184,-7.950789,-9.985514,-403.174286,46.358776,247.346069
379,1865612485,-35.587036,27.568237,-25.433197,11.897761,-9.530130,-3.470268,-462.978149,27.673878,279.848358
380,1865629152,-42.253136,30.833971,-21.795980,10.063035,-7.117884,-3.177040,-504.767426,31.828047,271.470001
381,1865645819,-48.577511,34.131256,-18.852165,4.849208,-4.726919,-3.163899,-472.689545,31.820862,245.644913
382,1865662486,-53.880318,37.121033,-16.430460,0.405553,-3.894331,-1.556547,-401.219879,19.308176,213.920731
383,1865679153,-57.796227,39.641216,-14.258885,0.510860,-4.120252,1.184915,-314.304352,-0.569482,182.529144
384,1865695820,-60.078400,41.811195,-12.409154,1.118293,-3.683228,2.681999,-207.820038,-5.846255,154.951981
385,1865712487,-61.338165,43.823254,-11.179973,1.059148,-3.182809,2.678859,-124.200050,10.898768,131.773849
386,1865729154,-62.411980,45.750973,-10.770769,-1.083790,-2.543908,3.318392,-80.216461,38.161049,110.238930
387,1865745821,-63.231659,47.372383,-10.900613,-3.993801,-1.965018,4.233628,-42.017761,48.198387,84.110077
388,1865762488,-63.489483,48.569382,-11.164106,-5.979520,-1.964480,4.186213,-2.223799,40.652088,59.456387
389,1865779155,-63.262531,49.329983,-11.595448,-5.511613,-0.610698,4.026970,34.634186,34.625851,33.174232
390,1865795822,-63.060200,49.715137,-12.430855,-5.530236,2.230019,5.187541,51.764744,38.441887,5.912490
391,1865812489,-63.121502,49.822979,-13.467089,-6.673434,5.183038,7.023134,45.284904,37.711258,-12.432244
392,1865829156,-63.694836,49.786263,-14.744267,-7.168477,6.592247,6.683331,25.621416,42.212852,-24.155323
393,1865845823,-64.643623,49.682178,-16.289892,-7.317520,6.535462,7.020676,15.319021,50.203697,-31.801508
394,1865862490,-65.163345,49.612606,-17.826654,-7.291158,6.669337,8.200476,40.557423,51.269073,-29.185976
395,1865879157,-64.443558,49.719357,-18.803179,-7.431668,8.060525,9.236113,89.315895,36.017403,-10.452235
396,1865895824,-62.367149,49.980064,-18.872213,-8.458962,9.804362,8.664265,129.204498,8.365652,12.670404
397,1865912491,-59.026585,50.254299,-17.788122,-9.243857,10.340523,7.944633,151.966339,-29.343418,34.618340
398,1865929158,-54.394611,50.348316,-15.470461,-9.226805,10.879965,6.416307,172.348358,-72.183861,53.306377
399,1865945825,-49.030598,50.124565,-12.251261,-8.999781,11.303839,4.779768,174.759842,-106.319908,65.827286
400,1865962492,-43.544037,49.517559,-8.623118,-9.108180,10.330177,4.460854,164.242004,-127.708900,70.529099
401,1865979159,-38.151821,48.479290,-4.905097,-9.360547,8.573203,3.952158,156.520782,-143.872330,69.757385
402,1865995826,-33.097584,47.101902,-1.323986,-10.558600,7.573890,3.279681,145.430847,-152.287766,68.983170
403,1866012493,-28.656099,45.422726,1.899505,-13.164843,6.097611,2.422462,128.069382,-156.131851,62.827831
404,1866029160,-24.828114,43.428230,4.645171,-15.410442,3.814423,1.218927,115.679039,-160.868591,50.978577
405,1866045827,-21.345003,41.032360,6.733574,-17.029924,2.034994,0.879786,126.074242,-169.712204,28.730980
406,1866062494,-18.305864,38.337299,7.741214,-17.314919,1.241864,-0.005352,145.045837,-169.035172,-11.335311
407,1866079161,-15.975587,35.392963,7.223542,-15.063865,0.880947,-2.858393,159.759720,-162.657135,-76.083214
408,1866095828,-14.402241,32.241066,4.950071,-11.900270,2.266171,-6.691526,171.626266,-153.987198,-159.192917
409,1866112495,-13.623283,28.673227,0.850294,-7.732263,1.988428,-10.063335,172.756927,-157.478348,-257.838806
410,1866129162,-12.904844,24.595398,-4.852049,-0.649797,-1.686751,-11.456287,197.821091,-169.004425,-354.075439
411,1866145829,-11.560772,20.300606,-11.839458,9.734715,-4.380979,-9.461441,242.027298,-170.664429,-433.569092
412,1866162496,-10.314355,16.423716,-19.644106,25.024439,-5.229632,-7.807366,223.610153,-144.934692,-480.746765
413,1866179163,-10.819142,13.725144,-26.939598,51.489887,-13.999557,-7.839723,85.048904,-82.616402,-445.367065
414,1866195830,-13.589788,13.610193,-31.170563,46.517635,-21.286020,-9.484022,-104.748085,44.318760,-242.708130
415,1866212497,-18.285847,15.673090,-32.903641,27.863338,-8.995162,-11.031672,-253.992249,145.667801,-62.910545
416,1866229164,-24.375090,18.418638,-31.976498,22.791138,-5.065112,-13.773561,-380.159058,133.215332,109.401436
417,1866245831,-31.223684,21.210230,-29.440998,13.633908,-5.624259,-7.936531,-460.925385,80.532593,204.768555
418,1866262498,-39.021389,24.096172,-26.610460,7.898837,-8.000697,-3.433479,-531.675720,50.566669,227.966843
419,1866279165,-46.872189,27.121906,-24.051743,3.990112,-9.589652,-2.190396,-535.789551,37.681248,225.192642
420,1866295832,-53.325478,30.159945,-21.855772,2.805865,-8.445190,-1.227321,-448.761688,27.312355,214.132507
421,1866312499,-58.115669,32.977306,-19.984133,2.145451,-6.530484,-0.504788,-344.656647,15.210752,193.645050
422,1866329166,-61.122551,35.588097,-18.292753,1.723304,-6.268210,2.498306,-236.055817,5.929366,177.591522
423,1866345833,-62.393826,38.157223,-16.870865,0.603635,-5.710575,4.137138,-125.962723,11.849009,168.122910
424,1866362500,-62.582531,40.690529,-15.852490,-0.354378,-4.215497,2.953460,-48.628025,27.371918,156.643219
425,1866379167,-62.336079,43.093075,-15.277534,-1.057060,-3.398070,0.665292,-6.747637,42.898258,139.725540
426,1866395834,-62.112137,45.315815,-15.049811,-1.926941,-1.852740,-0.246814,5.413744,52.493267,122.593330
427,1866412501,-62.092880,47.267899,-15.131335,-3.798502,-0.295781,1.146569,6.195364,56.791119,101.961731
428,1866429168,-62.426380,48.927753,-15.535645,-6.290482,1.036992,3.939879,-0.446752,59.693573,80.621910
429,1866445835,-62.974556,50.279514,-16.077841,-8.255330,2.085399,5.636482,-6.611324,54.922211,62.409317
430,1866462502,-63.410351,51.315754,-16.421728,-8.058572,2.738539,5.809331,-8.662735,38.658348,49.601173
431,1866479169,-63.223064,52.074371,-16.345387,-7.209466,3.964099,6.929449,9.137668,16.876591,41.917942
432,1866495836,-62.255093,52.792282,-15.968287,-8.615559,6.845061,9.190241,41.633030,6.437242,44.562927
433,1866512503,-60.470547,53.626785,-15.148994,-10.713016,9.381924,9.961044,69.182808,-2.876081,57.986427
434,1866529170,-57.499935,54.463341,-13.439310,-10.572633,10.859385,9.486662,96.663300,-26.792900,73.953537
435,1866545837,-53.015041,55.007710,-10.694568,-11.525131,13.081375,8.367327,136.074005,-60.553097,80.893501
436,1866562504,-47.677200,54.980034,-7.060297,-12.661139,15.149422,7.436487,143.075912,-98.399010,78.385460
437,1866579171,-42.266205,54.364315,-2.910672,-12.001489,14.770803,6.450262,122.907127,-128.902847,75.554787
438,1866595838,-37.072247,53.239338,1.275328,-10.896868,12.422132,6.491753,110.304779,-147.646133,70.874245
439,1866612505,-32.066795,51.708813,5.151261,-10.763588,9.451951,7.112543,117.214638,-156.999603,64.304214
440,1866629172,-27.374304,49.922729,8.392880,-11.985374,7.073641,7.438749,132.102814,-155.019547,53.335835
441,1866645839,-23.347658,47.976315,10.711998,-14.418654,4.768487,5.804174,137.971573,-145.733368,32.278389
442,1866662506,-20.232157,45.700428,11.862688,-16.842688,1.430678,2.837980,137.870880,-145.429611,-7.129499
443,1866679173,-17.744852,43.004742,11.353900,-16.492828,-0.155781,-1.192184,171.872818,-146.983490,-73.581223
444,1866695840,-15.754753,39.918297,9.041366,-14.304783,-0.957050,-4.917771,212.560547,-148.531616,-153.264862
445,1866712507,-13.927769,36.381081,5.056710,-9.974070,-1.351759,-8.945526,258.578461,-158.151932,-236.437439
446,1866729174,-11.992081,32.191109,-0.463111,-4.105842,-0.726148,-11.855849,303.972198,-184.717926,-323.410614
447,1866745841,-9.775708,27.370039,-7.179623,4.221759,-1.064587,-12.195175,334.360657,-219.014618,-398.481415
448,1866762508,-7.519082,22.463274,-14.517733,15.770051,-4.329255,-10.276497,322.098480,-231.953613,-439.409637
449,1866779175,-6.164925,18.334154,-21.714302,32.058441,-11.181953,-8.389689,233.071579,-198.719833,-431.615784
450,1866795842,-6.213862,15.926123,-27.421331,44.642155,-19.334042,-8.820608,99.375961,-109.424965,-341.072540
451,1866812509,-8.121079,16.149500,-30.862177,31.912811,-11.701662,-9.542617,-55.912315,36.972290,-195.336990
452,1866829176,-11.890736,17.931292,-32.228397,22.350193,-2.630181,-12.988474,-200.683731,117.910706,-58.756531
453,1866845843,-16.673094,19.839588,-31.287495,15.137765,-0.391943,-12.492462,-303.754211,96.859589,79.903915
454,1866862510,-21.780466,21.738073,-28.722586,12.073447,-1.749573,-7.010434,-359.577911,59.262512,173.320084
455,1866879177,-27.501608,23.926361,-25.419403,10.651197,-5.816606,-3.876615,-418.633820,42.282841,220.783615
456,1866895844,-34.197178,26.533184,-22.071815,9.683557,-6.821484,-3.949196,-485.767700,40.219219,236.309143
457,1866912511,-40.741982,29.331888,-18.994930,6.320290,-8.186480,-4.326041,-477.574005,33.175743,231.736435
458,1866929178,-45.740150,32.090073,-16.110146,3.879529,-8.297112,-2.484584,-386.716614,17.722126,221.868973
459,1866945845,-48.812408,34.657082,-13.377187,3.562085,-5.938659,-0.435635,-273.003906,2.986411,206.121506
460,1866962512,-50.424274,37.123417,-10.971513,3.218399,-3.795317,0.841314,-179.806610,5.879490,188.539917
461,1866979179,-51.183540,39.532104,-9.146659,1.960756,-3.511730,1.188046,-111.941765,23.846199,166.350098
462,1866995846,-51.745758,41.830750,-7.881454,1.055261,-3.308576,0.741281,-81.692818,39.969055,143.822327
463,1867012513,-52.397423,43.928070,-7.148733,-0.936302,-2.549771,1.378468,-67.484467,51.006901,119.146324
464,1867029180,-52.957935,45.769344,-6.940042,-5.291154,-2.402954,3.588885,-40.934093,58.977207,93.325813
465,1867045847,-53.373310,47.173767,-7.185794,-8.154035,-2.451817,3.902610,-12.700125,57.687534,61.431789
466,1867062514,-53.793354,48.087688,-7.648147,-7.422781,-1.166910,3.818972,-3.171823,46.618992,33.094910
467,1867079181,-54.182487,48.617668,-8.106754,-7.542101,1.662620,5.733733,-1.253760,32.493702,15.022535
468,1867095848,-54.439590,48.989723,-8.451870,-10.206249,3.428749,8.742842,1.681599,23.093456,10.207395
469,1867112515,-54.556953,49.411892,-8.741333,-11.995118,4.910130,8.882805,7.625977,22.928413,14.038055
470,1867129182,-54.168190,49.771358,-8.714033,-11.436083,6.153163,7.330299,23.590818,10.670422,18.121260
471,1867145849,-52.598011,50.023468,-8.044752,-10.469380,7.742560,7.694393,64.996658,-12.783236,27.509787
472,1867162516,-49.570858,50.302158,-6.638789,-11.588816,11.393982,8.543228,118.337280,-32.594692,46.863262
473,1867179183,-45.500420,50.529770,-4.276398,-12.681751,14.953727,6.964085,136.439545,-58.466747,70.916862
474,1867195850,-40.815903,50.427444,-1.041430,-12.612135,15.536966,4.376319,132.760590,-90.020027,85.716583
475,1867212517,-35.903873,49.847889,2.653151,-11.414839,13.428559,3.633663,125.932037,-116.489685,89.601074
476,1867229184,-30.984177,48.804707,6.286862,-9.732142,10.288705,4.111471,131.148987,-131.588272,83.812042
477,1867245851,-26.104015,47.442722,9.476649,-8.861241,8.040677,4.792431,151.601730,-133.895432,72.893448
478,1867262518,-21.307356,45.930962,12.117382,-9.170066,6.378465,5.622129,173.790619,-127.838753,62.746784
479,1867279185,-16.771383,44.367828,14.057458,-9.995855,4.631652,6.112020,190.896988,-116.558693,46.685181
480,1867295852,-12.897452,42.885571,15.031315,-11.942023,4.469573,4.364718,193.377228,-97.954910,17.779238
481,1867312519,-10.296563,41.427586,14.756089,-13.777914,3.527284,2.376549,168.382233,-84.421654,-29.933308
482,1867329186,-9.084062,39.800014,12.823060,-14.487513,1.702154,-0.797405,149.476089,-82.666931,-103.586472
483,1867345853,-8.901217,37.681187,9.167221,-12.482998,0.383611,-5.549422,149.470520,-100.067413,-189.218231
484,1867362520,-9.247628,34.826061,3.913611,-8.083935,-0.384933,-9.436740,166.887115,-130.293243,-278.368683
485,1867379187,-9.521393,31.026981,-2.723686,-0.721274,-1.568847,-10.478534,201.364456,-171.520279,-367.299042
486,1867395854,-9.488016,26.580124,-10.146111,10.893191,-2.498229,-8.891693,217.926208,-199.752335,-429.264130
487,1867412521,-10.055721,22.252237,-17.675865,26.040373,-6.010901,-6.701203,154.141983,-187.103867,-449.747192
488,1867429188,-12.021256,18.820593,-24.164808,46.710403,-19.876383,-10.266104,20.208481,-133.382858,-397.483368
489,1867445855,-14.895284,17.993505,-27.761152,39.639484,-24.232279,-13.953918,-102.831863,-1.774600,-210.855896
490,1867462522,-18.047075,19.164059,-28.991381,23.783590,-8.283256,-14.223441,-164.137085,86.162140,-47.326916
491,1867479189,-21.458637,21.140350,-27.694017,20.873699,-3.693018,-15.569275,-230.051270,85.963379,108.748253
492,1867495856,-25.200624,23.412930,-24.579166,15.471316,-3.172200,-10.337156,-293.873566,55.813450,212.765671
493,1867512523,-29.951962,25.901472,-20.902514,12.376529,-5.322733,-4.970124,-375.567444,38.669838,246.867569
494,1867529190,-36.271317,28.759495,-17.481030,9.671987,-5.192494,-4.279728,-471.810394,43.183270,246.587296
495,1867545857,-43.123493,31.686907,-14.609098,5.115809,-6.335942,-4.383388,-496.260529,39.237335,226.972488
496,1867562524,-48.986580,34.432018,-12.236484,1.517630,-7.362630,-1.171955,-427.860504,27.567076,201.597504
497,1867579191,-53.529037,36.846523,-10.195672,0.829781,-6.109161,0.567743,-342.310303,12.195584,175.447723
498,1867595858,-56.970722,38.901829,-8.685122,2.001904,-4.659798,0.455396,-260.578339,10.613881,142.284409
499,1867612525,-59.470745,40.762913,-7.975419,2.787929,-4.938808,2.253956,-175.713760,30.093210,112.331787
500,1867629192,-61.355366,42.489548,-8.162803,-0.252033,-3.624270,4.439384,-104.037849,57.524925,86.136482
501,1867645859,-62.770855,43.842991,-8.991697,-4.581939,-2.277961,6.125479,-49.336525,69.135353,54.949501
502,1867662526,-63.454964,44.756931,-10.224596,-6.431479,-4.209684,7.163809,12.182042,71.042473,25.158407
503,1867679193,-63.243176,45.287704,-11.665536,-6.221935,-2.537820,6.749567,75.433159,67.909706,1.232707
504,1867695860,-62.757648,45.447704,-13.495493,-7.134170,1.956105,6.903625,108.835777,72.087288,-26.298279
505,1867712527,-62.565216,45.410950,-15.339408,-9.001491,5.794422,9.197556,91.919991,66.950111,-37.471096
506,1867729194,-62.591377,45.351772,-16.966898,-10.478425,7.684400,10.021473,69.484489,58.236618,-34.631672
507,1867745861,-62.335457,45.320415,-18.178898,-11.341203,8.428905,9.906115,68.606995,43.446419,-25.242239
508,1867762528,-60.936714,45.387371,-18.685408,-11.011599,8.471637,10.256353,107.061256,19.682310,-6.607483
509,1867779195,-57.745991,45.707081,-18.038578,-10.784078,10.044739,10.003454,165.231216,-14.630580,30.315720
510,1867795862,-53.061825,46.123741,-16.022190,-10.954165,12.624677,8.025778,195.609360,-56.135387,68.272537
511,1867812529,-47.536736,46.470066,-12.737158,-10.388827,13.580021,5.323418,190.424072,-92.555679,102.809799
512,1867829196,-41.518219,46.574238,-8.571162,-9.830057,12.995279,3.789115,181.069153,-117.211868,126.768875
513,1867845863,-35.427917,46.281471,-4.069404,-9.611536,11.904923,2.912964,171.010376,-130.641052,134.550003
514,1867862530,-29.648178,45.562405,0.333969,-9.705531,10.150533,3.199025,158.226059,-136.291611,131.417572
515,1867879197,-24.419569,44.537697,4.305458,-10.696448,8.936896,3.162508,146.292114,-132.368668,121.656860
516,1867895864,-19.934004,43.309662,7.628307,-12.462415,7.513830,3.311561,132.027359,-123.556946,104.775093
517,1867912531,-16.308170,41.920666,10.038559,-14.400693,5.758760,2.184177,120.812035,-113.476585,74.806999
518,1867929198,-13.605274,40.304169,11.213861,-16.274416,3.045407,0.610153,116.956078,-108.648705,25.852633
519,1867945865,-11.537633,38.279091,10.845702,-16.317892,-0.112912,-2.002295,139.168137,-116.180908,-43.597565
520,1867962532,-9.899331,35.778046,8.793874,-13.577720,-1.271470,-5.145358,173.533676,-130.552811,-124.944763
521,1867979199,-8.710546,32.785053,5.202140,-9.787352,-2.209008,-8.137786,193.814438,-149.856995,-205.219513
522,1867995866,-7.624734,29.213030,0.268250,-4.061181,-4.115919,-10.510502,218.732788,-177.539703,-282.062988
523,1868012533,-6.039677,25.216236,-5.763988,3.989834,-3.334016,-11.907242,261.751007,-201.240555,-348.521515
524,1868029200,-3.981209,21.101303,-12.566195,16.030588,-4.260257,-10.919669,285.156616,-214.563995,-395.776642
525,1868045867,-2.410308,17.413141,-19.088074,33.559780,-11.800554,-8.720029,224.554184,-201.717926,-381.471222
526,1868062534,-3.093648,15.522632,-23.633648,47.266312,-19.717667,-8.783176,37.743870,-102.108086,-266.871216
527,1868079201,-5.969327,16.054255,-25.648932,29.947762,-12.253061,-9.404235,-138.196320,39.798161,-113.630829
528,1868095868,-10.237504,17.940090,-25.578121,23.466526,-3.744419,-13.829817,-255.879059,110.433067,19.829847
529,1868112535,-15.637341,20.217527,-23.705593,19.160952,-3.404487,-12.129940,-359.236938,108.510681,134.003326
530,1868129202,-21.863493,22.660011,-20.924835,13.186036,-5.790663,-6.051624,-433.035187,88.032272,194.190430
531,1868145869,-28.938395,25.362120,-18.002716,8.792032,-6.764374,-3.011243,-494.267792,76.989616,214.346222
532,1868162536,-35.900349,28.234129,-15.409534,5.372129,-7.308276,-2.391108,-486.275482,70.260780,209.791626
533,1868179203,-41.629845,31.051485,-13.108868,3.473394,-6.414877,-1.168557,-410.456116,55.912849,199.557373
534,1868195870,-46.324074,33.772152,-11.144498,3.980182,-3.725233,0.144799,-343.239319,47.577568,185.121933
535,1868212537,-50.202095,36.337761,-9.642332,2.755795,-2.103264,1.636869,-282.873383,46.591072,164.166138
536,1868229204,-53.091190,38.698986,-8.632789,0.703915,-2.572517,3.172156,-208.674774,49.378315,141.089813
537,1868245871,-55.023964,40.893284,-8.107143,-0.212431,-4.065026,3.545166,-134.598526,56.778191,120.987991
538,1868262538,-56.086086,42.895981,-7.957659,-0.474237,-4.865560,3.211536,-68.159897,61.549335,103.039856
539,1868279205,-56.285286,44.667900,-8.048796,-1.400944,-3.661129,3.321029,-6.611951,61.510677,86.306160
540,1868295872,-55.778564,46.233246,-8.449367,-3.665082,-1.753283,4.162071,49.090347,65.510422,68.636505
541,1868312539,-54.950058,47.596535,-9.223942,-5.970533,-0.236078,4.656315,85.205421,71.647018,49.404678
542,1868329206,-54.089642,48.718533,-10.131021,-7.134115,1.060851,5.027238,93.720428,67.663788,33.863018
543,1868345873,-53.159306,49.605583,-10.846666,-7.983025,2.896207,6.105017,89.844376,53.180267,26.288162
544,1868362540,-52.192654,50.373501,-11.368310,-9.128619,4.445342,7.237463,83.503639,42.935238,24.483673
545,1868379207,-51.191208,51.236725,-11.776156,-10.216935,6.062804,8.450001,80.569298,43.222229,31.059202
546,1868395874,-49.515167,52.245228,-11.628421,-10.415244,7.557748,8.305628,95.099380,33.346451,50.048027
547,1868412541,-46.528049,53.345360,-10.488567,-10.296494,9.722566,7.699081,126.231377,12.356400,76.633644
548,1868429208,-42.118019,54.365349,-8.229763,-10.607399,12.746785,7.690853,156.594879,-13.140945,99.797920
549,1868445875,-36.681438,55.087490,-4.959289,-11.152751,14.271532,7.562796,167.393158,-39.524105,114.850014
550,1868462542,-30.728516,55.394619,-0.988226,-11.249858,13.661631,6.901373,162.775131,-61.137691,122.954910
551,1868479209,-24.787498,55.211609,3.126537,-11.378347,11.792111,6.645535,154.791428,-76.258034,118.927109
552,1868495876,-19.191427,54.506012,6.946876,-11.890578,9.754945,6.001098,149.605347,-89.759399,106.130257
553,1868512543,-14.339537,53.299572,10.014528,-12.485268,7.646495,5.214118,143.651093,-101.719177,82.566750
554,1868529210,-10.409141,51.693672,12.039968,-13.110578,5.754740,3.740636,140.653946,-111.146095,51.220039
555,1868545877,-7.489766,49.734814,12.802648,-13.910865,4.254282,2.255399,140.970444,-121.834679,9.923892
556,1868562544,-5.690876,47.361927,12.149532,-13.870050,3.600294,-0.031464,138.515900,-139.729584,-42.532539
557,1868579211,-4.924140,44.554741,10.014117,-13.082775,1.760813,-3.626970,139.311081,-160.773071,-104.684975
558,1868595878,-4.740766,41.221848,6.546391,-11.299926,0.338683,-7.911400,153.824417,-187.730484,-169.150208
559,1868612545,-4.444398,37.334362,1.940594,-7.049992,-2.031532,-11.111821,193.975220,-216.669724,-232.294525
560,1868629212,-3.468369,32.846523,-3.664165,-1.678861,-2.036407,-11.867893,253.117996,-250.906967,-293.466309
561,1868645879,-1.928105,28.196701,-10.102790,5.870754,-1.634412,-10.378276,289.844147,-264.233368,-345.936523
562,1868662546,-0.831522,23.734867,-17.082907,14.560233,-2.618039,-8.221183,250.457520,-259.714600,-383.189392
563,1868679213,-0.914007,19.767820,-24.195211,27.435644,-9.104708,-8.677097,154.622284,-233.049118,-400.171295
564,1868695880,-3.006672,17.179115,-30.145880,43.292358,-20.208902,-8.910680,-10.868299,-144.789062,-343.919189
565,1868712547,-7.724635,17.252293,-33.610508,35.670742,-16.508694,-9.838112,-220.036484,21.827404,-197.464478
566,1868729214,-14.124050,19.153357,-34.877048,20.506954,-2.643352,-11.910543,-358.748962,124.754333,-49.427155
567,1868745881,-21.378548,21.373692,-33.918682,14.078767,0.806757,-13.321996,-453.722168,109.594650,91.940369
568,1868762548,-28.799543,23.655750,-31.214712,11.315449,-4.666865,-8.777393,-505.875519,59.607819,193.860077
569,1868779215,-36.494072,26.351618,-27.787664,10.441903,-11.018128,-4.638444,-546.991394,34.824215,244.327103
570,1868795882,-44.144768,29.426300,-24.442829,8.681204,-12.095142,-3.032370,-551.289368,25.030931,254.855942
571,1868812549,-50.000530,32.524620,-21.374474,5.614581,-10.500523,-2.051644,-444.493835,10.170218,243.817780
572,1868829216,-53.898239,35.420158,-18.729544,4.624169,-7.058396,-1.743968,-320.971497,2.567864,218.080734
573,1868845883,-56.751324,38.149048,-16.546494,4.949485,-5.125363,-1.335132,-248.067917,5.979913,194.497147
574,1868862550,-58.711010,40.745117,-14.839464,4.281221,-4.587397,0.264552,-181.107666,15.374710,174.097672
575,1868879217,-59.790249,43.284607,-13.680158,2.512876,-4.701515,1.563725,-109.764488,32.566658,157.542618
576,1868895884,-60.540112,45.731441,-13.360600,-0.276655,-4.513196,1.527292,-56.879951,60.243313,134.336075
577,1868912551,-61.464737,47.911907,-13.845584,-3.444233,-4.227881,1.546591,-32.704571,79.882225,104.955231
578,1868929218,-62.472443,49.596729,-14.687164,-5.166615,-3.080510,2.817879,-20.943966,75.914909,73.756096
579,1868945885,-63.406544,50.737782,-15.709697,-6.210701,-0.915881,4.330255,-7.382125,65.143349,43.247543
580,1868962552,-64.735924,51.554398,-17.280718,-7.593300,1.738889,6.894159,-4.808832,73.587479,18.343927
581,1868979219,-66.364120,52.338699,-19.297319,-10.282409,4.107709,9.889616,-0.872943,86.337410,12.073771
582,1868995886,-67.650208,53.173347,-21.031698,-12.686366,5.492807,9.810009,7.205020,76.493423,21.565716
583,1869012553,-68.059570,53.972683,-22.138359,-11.032068,5.896423,8.467644,30.381905,53.542091,29.580330
584,1869029220,-67.003571,54.822399,-22.422314,-8.800628,8.512970,10.200605,78.719223,27.587395,43.300968
585,1869045887,-63.942154,55.858936,-21.457016,-8.316595,12.802400,13.451031,137.528137,-5.213199,70.192268
586,1869062554,-58.763546,57.048027,-18.997625,-8.477635,15.050961,12.280611,189.173431,-38.424080,101.590889
587,1869079221,-51.921894,58.031883,-14.945996,-10.795080,15.273527,7.835661,206.773895,-74.812309,122.565468
588,1869095888,-44.189564,58.357506,-9.434478,-12.495625,14.254558,5.394367,184.227661,-117.611748,130.768692
589,1869112555,-36.307484,57.774918,-3.323617,-11.681645,11.979685,3.964270,163.029343,-152.977661,125.151649
590,1869129222,-29.061022,56.464718,2.364393,-10.548881,10.499262,3.704972,149.416412,-167.199966,113.186142
591,1869145889,-22.983652,54.659489,7.140854,-10.387959,9.288455,3.888428,129.518921,-169.446747,97.790741
592,1869162556,-18.197199,52.571583,10.825809,-11.261544,7.476227,4.412214,110.427460,-164.451935,78.366295
593,1869179223,-14.524116,50.366619,13.430014,-12.928257,5.484156,4.764388,99.387337,-155.463058,55.756100
594,1869195890,-11.906416,48.124962,14.831353,-14.494060,4.124874,4.078408,94.603333,-144.638748,22.298735
595,1869212557,-10.302633,45.721172,14.817881,-16.247524,2.196635,2.629593,98.041161,-142.620636,-28.718906
596,1869229224,-9.592820,43.032944,13.094612,-16.044687,0.169842,-0.834300,116.121140,-147.337952,-101.058189
597,1869245891,-9.587214,39.848309,9.675237,-14.289900,-1.339064,-6.033764,137.356445,-164.027191,-183.873032
598,1869262558,-9.522006,35.978016,4.861437,-9.036469,-3.986126,-10.630733,182.650421,-192.392456,-263.630066
599,1869279225,-8.552083,31.407185,-1.190576,-2.341060,-4.064337,-13.322175,260.886505,-224.552124,-341.839386
600,1869295892,-6.463403,26.500120,-8.343915,7.514352,-1.766072,-13.607657,334.282104,-243.920380,-411.230957
601,1869312559,-4.139595,21.841078,-16.185097,23.806320,-2.378872,-10.412071,333.230377,-239.712784,-453.613892
602,1869329226,-3.511562,18.166492,-23.326210,45.489086,-16.313219,-7.708513,185.627319,-194.171707,-416.662445
603,1869345893,-5.570069,17.140684,-27.690817,45.823929,-25.131813,-7.818977,-42.598965,-42.741917,-253.792755
604,1869362560,-9.758528,18.646082,-29.918476,26.028345,-5.926311,-9.763457,-208.745972,105.475594,-114.167046
605,1869379227,-15.752597,21.078354,-29.920149,20.731575,2.323455,-16.085522,-358.121735,141.489288,32.019188
606,1869395894,-22.296894,23.487785,-27.777241,13.132587,-0.879099,-13.549941,-439.912598,97.054390,159.599045
607,1869412561,-28.477497,25.811058,-24.406214,9.286668,-8.227606,-6.150902,-453.649750,46.270126,225.893616
608,1869429228,-34.630581,28.417782,-20.742662,8.451838,-10.757754,-0.912537,-467.780579,30.032475,248.693253
609,1869445895,-39.962395,31.224115,-17.378036,7.470464,-9.227196,-1.311005,-418.718475,26.956408,241.487564
610,1869462562,-44.046101,34.027565,-14.366575,5.477199,-5.738930,-2.084440,-340.865417,22.293175,225.753479
611,1869479229,-47.267345,36.635475,-11.849872,4.020967,-4.519322,-2.202763,-279.042542,20.392706,198.118607
612,1869495896,-49.528927,39.049702,-9.833581,3.939208,-5.003509,-1.150000,-208.365967,23.850126,171.854843
613,1869512563,-50.535381,41.330044,-8.238012,3.646166,-5.226863,0.282216,-120.627846,30.937769,151.946152
614,1869529230,-50.553326,43.513630,-6.949359,1.780185,-4.792896,0.193461,-51.696690,38.273460,137.544434
615,1869545897,-50.295830,45.558975,-6.147851,-0.070082,-3.808681,0.089890,-16.735012,50.838226,116.552818
616,1869562564,-50.190704,47.358917,-6.000232,-2.535832,-2.971139,0.473455,1.434159,63.439564,87.048698
617,1869579231,-50.231853,48.755421,-6.428271,-5.362394,-2.639467,1.640914,18.184736,65.864235,53.515434
618,1869595898,-50.593567,49.655613,-7.333690,-7.112938,-0.892192,2.726592,20.971903,60.803711,19.106501
619,1869612565,-51.633644,50.167534,-8.783517,-7.819669,1.448287,4.481342,5.691062,61.900379,-11.178230
620,1869629232,-53.260910,50.548901,-10.520498,-9.760507,3.769879,8.083014,-15.844863,65.657494,-22.328281
621,1869645899,-54.868912,50.981583,-12.156168,-12.341165,6.555072,10.553986,-18.940561,64.476952,-15.386997
622,1869662566,-55.959728,51.617714,-13.272836,-13.431645,8.579965,10.995522,-11.648828,55.122433,7.625288
623,1869679233,-55.663517,52.476826,-13.532162,-12.091834,10.583464,10.726032,31.537340,35.838089,37.194698
624,1869695900,-53.102905,53.478432,-12.400741,-11.383293,14.014585,11.996565,100.906929,0.718251,72.544121
625,1869712567,-48.303165,54.334023,-9.552951,-11.831481,17.691772,10.873255,151.340851,-46.442677,103.307495
626,1869729234,-42.189781,54.781456,-5.260269,-11.707385,16.770239,7.614418,158.329453,-88.214180,123.983467
627,1869745901,-35.353359,54.678257,-0.139928,-12.182861,12.352111,6.559584,160.659500,-116.951401,134.145187
628,1869762568,-28.057335,53.911842,5.079920,-12.392756,9.398912,5.599576,184.688675,-136.209000,131.031906
629,1869779235,-20.949125,52.505096,9.694918,-12.938757,8.953739,5.292081,205.971909,-146.626801,115.579262
630,1869795902,-14.889816,50.614559,13.096055,-14.963906,8.474462,6.108906,204.944412,-148.058456,85.478104
631,1869812569,-10.196496,48.476639,14.987868,-17.258118,4.449521,7.099068,196.450699,-142.364120,43.674458
632,1869829236,-6.716377,46.331100,15.177507,-18.459887,0.781458,5.908774,201.657120,-129.685287,-11.694060
633,1869845903,-4.103874,44.170589,13.382673,-18.920790,-3.342823,3.268160,234.445587,-123.181068,-88.085991
634,1869862570,-2.281934,41.433922,9.628384,-18.022017,-5.219806,-2.341068,263.580414,-156.047455,-174.539200
635,1869879237,-0.766440,37.644783,4.031292,-12.639921,-5.266733,-9.151976,305.940216,-221.651169,-265.317566