sep=,
DeviceTag:,DOT10
FirmwareVersion:,3.0.0
AppVersion:,2023.6.0
SyncStatus:,Synced
OutputRate:,60Hz
FilterProfile:,Dynamic
Measurement Mode:,Custom modes - custom mode1
StartTime: ,2026-06-02_17:51:24_384 GMT+2
© Movella Technologies B. V. 2005-2026

PacketCounter,SampleTimeFine,Euler_X,Euler_Y,Euler_Z,FreeAcc_X,FreeAcc_Y,FreeAcc_Z,Gyr_X,Gyr_Y,Gyr_Z
1,349598832,77.785812,-40.120014,111.413132,0.799802,-0.038274,-0.002570,-0.393667,8.836031,-1.004274
2,349615499,77.704521,-40.122478,111.649734,0.502349,-0.239380,-0.287987,5.773431,9.575317,2.348525
3,349632166,77.715561,-40.148582,111.908791,0.170886,-0.606331,-0.307294,12.185643,10.276291,3.960079
4,349648833,77.743935,-40.148605,112.179802,0.102259,-1.053135,-0.243191,13.691495,11.144245,2.544925
5,349665500,77.788017,-40.123131,112.454247,0.427970,-1.312808,-0.088606,14.762380,11.626010,1.081005
6,349682167,77.905586,-40.085987,112.706024,1.073137,-1.113021,-0.143195,18.287964,10.764105,0.165029
7,349698834,78.107567,-40.043938,112.959763,1.158294,-0.761284,-0.182447,23.421900,10.917803,-0.130266
8,349715501,78.254814,-40.013409,113.301582,1.182760,-0.635869,0.106565,23.531326,14.739884,1.344946
9,349732168,78.306656,-39.986012,113.741493,1.044711,-0.613541,0.450253,21.584671,19.123808,2.419965
10,349748835,78.284180,-39.934837,114.185349,1.089331,-1.031350,0.951118,17.265362,19.599224,1.061489
11,349765502,78.131828,-39.845581,114.561752,0.929432,-1.635216,1.389129,6.852206,17.042551,-1.769059
12,349782169,77.830864,-39.732952,114.860916,0.829647,-1.622667,1.139186,-5.057180,13.882664,-3.798994
13,349798836,77.386589,-39.585911,115.115257,1.102407,-0.956470,0.767196,-15.406202,12.350480,-6.150412
14,349815503,76.860710,-39.418896,115.363495,1.293017,-0.239316,0.481576,-20.566492,12.415252,-7.258437
15,349832170,76.363190,-39.295456,115.628807,1.446584,0.217035,0.405890,-18.240961,12.663665,-4.404265
16,349848837,75.967506,-39.262249,115.900017,1.173788,0.434332,0.374076,-11.917307,11.679806,1.028870
17,349865504,75.577332,-39.322472,116.137794,0.961880,0.379414,0.153256,-12.855821,8.779281,6.167231
18,349882171,75.207680,-39.480499,116.301918,0.600695,0.417685,-0.284729,-14.403305,3.934954,11.043396
19,349898838,74.952164,-39.701141,116.386070,0.054327,0.328113,-0.538660,-10.585024,-0.687254,13.742620
20,349915505,74.755974,-39.951954,116.394974,-0.240218,-0.083269,-0.275395,-9.901779,-4.575611,14.579976
21,349932172,74.614876,-40.181099,116.302589,-0.296039,-0.399601,-0.027955,-10.506200,-8.761051,12.086231
22,349948839,74.572601,-40.371658,116.116371,-0.265021,-0.662475,0.178646,-8.231803,-12.292291,8.704979
23,349965506,74.561676,-40.521061,115.881073,-0.048650,-0.723952,0.275046,-8.293567,-13.780671,5.732493
24,349982173,74.533730,-40.615509,115.650841,0.330899,-0.313464,0.004932,-9.135840,-12.660176,2.618113
25,349998840,74.540710,-40.672531,115.474762,0.625146,0.026239,-0.025498,-4.937439,-9.676110,1.112687
26,350015507,74.568726,-40.721382,115.418167,0.564864,0.095115,0.276017,0.991436,-4.303343,2.093166
27,350032174,74.513710,-40.766956,115.509087,0.488388,0.038065,0.590360,1.785417,2.212701,3.690746
28,350048841,74.234718,-40.802422,115.726509,0.343926,-0.153130,0.886417,-6.689797,7.896533,4.663095
29,350065508,73.706665,-40.808804,116.003799,0.144477,-0.185967,0.847376,-19.280428,10.953309,3.798927
30,350082175,72.969879,-40.782539,116.291290,0.052495,-0.313885,0.852640,-31.408516,11.916720,2.188595
31,350098842,72.110046,-40.719475,116.581398,-0.128818,-0.299258,0.706628,-38.698696,12.667558,0.301943
32,350115509,71.145714,-40.622322,116.917183,-0.150990,-0.057141,0.554387,-43.204018,15.290902,-0.759794
33,350132176,70.028275,-40.488480,117.335190,-0.064668,0.407305,0.406693,-49.212669,19.594757,-1.285949
34,350148843,68.948189,-40.348106,117.783844,0.233064,0.810174,0.253516,-45.823181,21.099260,-0.755172
35,350165510,68.111237,-40.260143,118.151344,0.292385,0.616920,0.080248,-34.426434,16.531052,1.191759
36,350182177,67.482872,-40.249702,118.403038,-0.320139,-0.072248,0.067219,-26.416870,9.854289,3.720978
37,350198844,66.885796,-40.297985,118.559296,-0.850138,-0.896154,0.114205,-28.236404,4.419067,5.388460
38,350215511,66.264519,-40.349560,118.601425,-0.630369,-1.054223,-0.343625,-34.117611,-0.511949,3.553629
39,350232178,65.782372,-40.381111,118.466324,0.025801,-0.640938,-0.843566,-32.656345,-7.458063,-0.830060
40,350248845,65.583984,-40.432648,118.187767,0.253931,-0.629389,-0.686940,-21.216736,-13.918176,-2.470747
41,350265512,65.565666,-40.519672,117.864166,0.004831,-0.903627,-0.363060,-12.186414,-16.656796,-1.397572
42,350282179,65.450813,-40.631264,117.581833,-0.075247,-0.937029,-0.164717,-16.389633,-15.534002,0.716062
43,350298846,65.202263,-40.750263,117.324890,0.189184,-0.648723,-0.275111,-23.447990,-14.652324,1.569314
44,350315513,64.894806,-40.877342,117.052490,0.351803,-0.408277,-0.365855,-27.614353,-15.484239,1.657820
45,350332180,64.540970,-41.007050,116.760132,0.270489,-0.465751,-0.286676,-31.205778,-16.356443,1.342348
46,350348847,64.143806,-41.108765,116.446121,0.067983,-0.428649,-0.301411,-34.684937,-16.502899,-0.685246
47,350365514,63.671993,-41.167984,116.133286,0.034171,-0.226472,-0.420105,-39.138000,-15.313585,-3.060353
48,350382181,63.213688,-41.204426,115.832207,0.145822,0.090280,-0.565589,-37.874767,-14.193975,-4.155365
49,350398848,62.869263,-41.248814,115.523514,0.197794,0.412800,-0.530054,-31.351015,-14.681520,-3.976094
50,350415515,62.645683,-41.307945,115.180283,0.055642,0.507281,-0.458624,-25.482450,-16.444777,-3.966856
51,350432182,62.409367,-41.364960,114.807671,-0.590008,0.516313,-0.485087,-27.424387,-17.532316,-4.749086
52,350448849,62.082016,-41.390240,114.459045,-1.156935,0.672084,-0.684165,-31.943331,-15.653670,-6.010265
53,350465516,61.667046,-41.366573,114.141281,-1.114672,0.797377,-0.632512,-35.982143,-13.003189,-8.042917
54,350482183,61.342846,-41.319050,113.795418,-0.363077,0.876875,-0.425545,-31.641197,-13.383167,-9.990099
55,350498850,61.352680,-41.301426,113.341431,0.292706,0.838987,-0.349972,-15.870627,-18.497383,-10.794102
56,350515517,61.707108,-41.330837,112.766357,0.514907,0.412990,0.014304,0.003925,-24.672678,-10.861991
57,350532184,62.273876,-41.382839,112.154411,0.157503,0.168243,0.141331,11.270081,-26.848423,-10.248636
58,350548851,62.859325,-41.413795,111.578339,0.172204,-0.075727,0.267211,13.794602,-24.918495,-10.360037
59,350565518,63.405598,-41.411045,111.020760,0.645789,-0.204241,0.282138,12.172822,-23.358297,-11.548069
60,350582185,63.920933,-41.410477,110.436447,1.162820,-0.388947,0.339344,9.257923,-24.603001,-11.756942
61,350598852,64.381813,-41.436836,109.796837,1.158782,-0.308046,0.288467,3.790288,-27.646206,-11.182886
62,350615519,64.709206,-41.471821,109.135773,0.694360,-0.297365,0.229493,-5.077236,-28.805431,-10.940976
63,350632186,64.801468,-41.483940,108.502090,0.433377,-0.097506,0.124193,-18.105743,-27.137526,-11.550543
64,350648853,64.781197,-41.465919,107.871971,0.505184,0.167520,-0.221830,-24.716318,-26.235723,-13.103449
65,350665520,64.713478,-41.454304,107.291573,0.387782,0.427203,0.177507,-25.579437,-24.376787,-11.824697
66,350682187,64.640030,-41.493603,106.804695,0.310572,0.720017,-0.314169,-22.209297,-21.862143,-7.295035
67,350698854,64.682785,-41.546040,106.348976,0.263666,0.826523,-0.190513,-14.011166,-20.918749,-5.986842
68,350715521,64.819153,-41.559193,105.880531,0.084243,0.833237,0.048545,-8.911483,-20.430908,-8.331137
69,350732188,64.971077,-41.565521,105.456070,0.035381,0.803308,0.316656,-6.230402,-18.486788,-7.818378
70,350748855,65.137360,-41.583126,105.100052,0.179489,0.955608,0.205584,-2.647536,-16.004765,-5.864008
71,350765522,65.314796,-41.575382,104.820755,0.187737,0.998617,0.117863,1.077367,-12.255967,-5.761811
72,350782189,65.393280,-41.546246,104.641777,0.393895,0.809111,-0.019985,-0.862559,-7.643895,-5.030182
73,350798856,65.498276,-41.515324,104.502434,0.538183,0.808216,-0.142647,2.313576,-5.990952,-4.383640
74,350815523,65.680870,-41.510319,104.360596,0.518944,0.590317,-0.034834,6.870948,-6.749935,-3.006599
75,350832190,65.903526,-41.548523,104.237877,0.390935,0.514957,0.065292,10.040689,-7.038258,-0.272007
76,350848857,66.125900,-41.630226,104.149132,0.474523,0.640081,0.077169,11.367559,-6.704642,2.755602
77,350865524,66.368797,-41.748356,104.078995,0.395805,0.658931,0.009132,13.340995,-6.803021,5.113022
78,350882191,66.645454,-41.876274,103.997536,-0.002505,0.220197,0.247826,14.903681,-7.476573,5.476328
79,350898858,66.932465,-42.001297,103.858879,-0.457185,-0.639064,0.412922,13.226712,-9.717121,4.343143
80,350915525,67.238640,-42.131302,103.626907,-0.815440,-1.457122,0.451662,10.607377,-13.626881,3.053415
81,350932192,67.613419,-42.276611,103.313728,-0.885899,-2.404354,0.403728,11.423339,-17.269440,2.605270
82,350948859,68.052696,-42.451363,102.958405,-0.516534,-3.117322,-0.141562,13.546767,-19.611309,3.675154
83,350965526,68.554817,-42.662163,102.613663,-0.005060,-3.325015,-0.778168,17.685661,-19.901903,6.044017
84,350982193,69.154953,-42.909878,102.282928,0.082299,-3.671181,-0.996421,24.077877,-20.013426,8.548072
85,350998860,69.744476,-43.206898,101.999596,-0.371242,-4.278426,-0.655165,25.310589,-18.957596,12.282561
86,351015527,70.105934,-43.539124,101.788498,-0.523028,-4.254016,-0.475953,14.530950,-16.559502,15.537683
87,351032194,70.306190,-43.883373,101.631493,-0.391243,-3.237275,-0.802472,7.041233,-14.473571,17.124664
88,351048861,70.471169,-44.216980,101.525887,-0.223387,-2.608226,-0.541389,7.026952,-12.077778,17.336773
89,351065528,70.610764,-44.515709,101.429428,-0.051588,-2.433586,0.019961,5.860584,-10.942784,15.543451
90,351082195,70.630981,-44.772446,101.258850,-0.039612,-2.530996,0.788561,-4.450544,-13.052349,12.148917
91,351098862,70.415543,-44.968636,100.979401,-0.722290,-2.303432,1.293050,-23.225567,-16.199955,7.179371
92,351115529,69.729706,-45.077827,100.663887,-1.509858,-2.041077,1.508957,-53.015743,-15.885680,1.653990
93,351132196,68.514229,-45.082260,100.382820,-1.728025,-1.642759,1.240642,-83.347328,-12.291765,-3.934145
94,351148863,66.901627,-44.995956,100.143784,-1.355843,-1.544201,0.743329,-105.388329,-8.486465,-8.566289
95,351165530,65.040092,-44.798309,99.848831,-1.195886,-1.650062,0.294051,-122.671181,-7.696789,-15.862252
96,351182197,62.733334,-44.463821,99.512863,-1.890728,-2.055974,0.080303,-151.056473,-5.127945,-24.257500
97,351198864,59.936222,-43.958244,99.185692,-1.313299,-0.844733,-0.259383,-180.011169,1.119132,-33.283665
98,351215531,56.889839,-43.366348,98.893494,0.414211,0.690928,-0.338449,-193.386063,6.704087,-36.813995
99,351232198,54.008106,-42.772854,98.467117,1.538230,2.009044,0.222502,-188.868958,3.697506,-39.856239
100,351248865,51.350258,-42.263737,97.855988,0.848557,3.554925,0.794345,-182.740768,-4.091853,-40.624790
101,351265532,48.682262,-41.879086,97.274162,-0.645145,4.700701,1.030868,-181.954926,-6.148931,-34.303509
102,351282199,46.002357,-41.403786,96.719788,-1.380888,5.909926,0.948097,-181.378769,-0.073569,-37.811367
103,351298866,43.527954,-41.065411,96.482063,-0.191094,6.827500,0.255750,-156.350754,5.759925,-21.931278
104,351315533,41.560726,-40.898888,96.656075,0.912477,7.402987,-0.017228,-109.669647,11.605963,-0.996377
105,351332200,40.083645,-40.942577,97.387817,1.073988,7.909297,0.057281,-58.344494,18.635653,26.738014
106,351348867,38.911877,-41.208969,98.850395,0.568695,8.960999,0.191900,-11.117081,28.696510,61.098209
107,351365534,37.878681,-41.638847,101.055939,0.253237,9.971319,0.477736,27.099218,40.393703,93.634995
108,351382201,36.785671,-42.364647,104.062897,0.749532,11.122185,0.840342,56.698318,45.695045,132.817368
109,351398868,35.674770,-43.425941,107.777420,0.130588,12.121378,1.570273,86.614937,44.185940,169.088150
110,351415535,34.310822,-44.895756,112.205856,-1.691389,13.512722,2.762711,104.874519,36.162048,206.412369
111,351432202,32.553947,-46.759579,117.288147,-3.641015,15.182026,4.098285,114.945816,22.901295,238.546661
112,351448869,30.374624,-48.873718,122.900238,-5.946293,16.274666,4.546764,120.440674,9.046038,258.603943
113,351465536,27.794033,-50.987335,129.036392,-5.368690,16.470135,5.233379,128.642624,3.658692,268.202972
114,351482203,25.266138,-52.694801,135.266464,-6.303386,14.272267,7.280535,143.995163,10.787527,251.784927
115,351498870,23.073223,-53.814827,140.853149,-8.487387,9.094323,9.170547,138.768707,20.061020,209.844162
116,351515537,21.755087,-54.555557,144.904755,-9.600398,4.861572,10.330070,119.775841,12.411974,147.829865
117,351532204,22.157900,-55.025875,146.512711,-11.073150,0.870813,10.009361,104.722275,-6.101480,61.525524
118,351548871,24.268536,-55.124626,145.416672,-10.260243,-3.110611,6.128334,74.432671,-20.975300,-32.881145
119,351565538,28.179533,-54.838520,141.905518,-5.778987,-6.409633,1.309600,63.785900,-38.672039,-116.617699
120,351582205,33.783772,-54.159279,136.885483,0.044879,-10.430383,-1.510477,92.604073,-55.745159,-171.466553
121,351598872,41.023216,-52.820080,131.029877,5.442663,-14.594482,-4.196229,153.408630,-63.840591,-215.314911
122,351615539,49.533981,-50.103565,125.079674,7.133619,-17.312599,-9.134907,232.634827,-44.176434,-272.703186
123,351632206,57.529053,-46.226593,120.672600,10.675270,-25.017929,-11.910429,283.869629,-4.435847,-292.295776
124,351648873,63.975021,-42.214230,117.984169,14.998089,-24.781935,-14.501886,275.513885,15.871325,-266.889832
125,351665540,70.229546,-39.550735,116.628265,16.677814,-24.005999,-13.265100,323.410614,4.586462,-171.418808
126,351682207,75.625259,-38.927303,116.042076,13.511393,-18.192663,-13.487928,302.968964,-16.049124,-43.863304
127,351698874,79.350967,-40.217533,116.071419,10.420031,-12.668954,-12.672979,226.150482,-16.464790,75.885452
128,351715541,80.384209,-42.751301,116.567863,12.210919,-9.936776,-9.996680,83.226303,-5.812366,153.657455
129,351732208,79.230118,-45.808987,117.258980,12.996513,-9.174177,-8.947304,-38.743729,-4.310641,185.954300
130,351748875,76.201187,-48.950535,118.327126,11.481095,-8.012461,-8.891912,-132.973450,1.186028,193.610245
131,351765542,71.422821,-52.041969,120.298988,9.210268,-5.496279,-8.763772,-193.760376,19.406889,199.356049
132,351782209,65.168808,-54.620361,123.101883,8.217567,-5.154192,-7.214910,-238.685852,34.886288,181.135727
133,351798876,58.198593,-56.407196,126.363640,7.574812,-7.106421,-5.480117,-255.270187,45.420013,147.210342
134,351815543,51.041317,-57.435364,129.548965,5.231074,-10.031431,-3.360383,-267.710785,47.980896,110.982407
135,351832210,44.538826,-57.614441,132.163773,2.457294,-12.812842,-2.444343,-256.260193,53.764812,64.864426
136,351848877,39.383923,-57.087715,133.658325,-0.924690,-12.090409,-1.496696,-232.296875,54.387829,15.174311
137,351865544,36.959526,-55.640095,132.493439,-3.412166,-11.298313,0.600531,-202.185135,42.862518,-83.772636
138,351882211,37.874474,-53.678810,128.373032,-7.230700,-8.093869,2.833992,-145.342255,5.012440,-184.659424
139,351898878,41.027252,-51.277054,122.579933,-12.377163,-9.164561,5.084936,-85.164993,-24.858126,-254.500015
140,351915545,45.393539,-48.344631,115.921135,-16.140106,-7.114168,7.782980,-41.982609,-49.916927,-307.707153
141,351932212,50.264862,-44.865139,108.803802,-16.734667,-1.169730,10.582474,-16.881222,-78.909103,-350.902405
142,351948879,54.742661,-41.225254,101.902946,-10.840204,6.819844,11.546623,-12.800604,-108.684875,-356.659058
143,351965546,58.814255,-37.899681,95.345642,-4.197943,13.747574,8.170950,-5.067432,-145.872208,-332.361847
144,351982213,61.945328,-35.034824,89.387245,-4.246592,16.061863,7.173801,-23.260374,-166.341751,-290.916626
145,351998880,63.510338,-33.224747,84.427124,-4.706551,16.868366,8.117390,-71.570435,-170.477524,-208.974777
146,352015547,63.828823,-32.538166,80.132133,-3.098644,19.138876,6.849323,-119.228645,-176.905136,-132.604584
147,352032214,63.876495,-32.842945,76.190399,-1.424020,20.688623,6.627550,-123.303101,-187.898529,-71.110573
148,352048881,64.293640,-34.445492,73.260948,1.884988,22.069353,2.865313,-70.797256,-174.750778,22.610094
149,352065548,65.592354,-37.083786,71.405777,3.193355,21.586060,3.668604,14.394008,-149.939026,105.120872
150,352082215,67.201614,-40.310596,70.946777,2.573022,20.015581,5.542344,80.842285,-98.254234,168.694321
151,352098882,68.225548,-43.823292,72.263145,1.100980,17.075306,8.068340,115.864418,-26.653284,217.048950
152,352115549,68.187431,-47.322666,75.479485,1.571743,12.620069,8.405773,137.054916,46.559082,244.777618
153,352132216,66.831551,-50.546734,80.838196,2.392901,9.620754,8.309814,162.648575,120.271912,259.026855
154,352148883,62.994858,-53.197060,88.697250,-0.318068,9.328128,9.441431,142.463120,195.354706,266.731506
155,352165550,57.205765,-54.962845,98.395775,-3.995633,11.922492,7.977560,125.783440,242.150803,261.170502
156,352182217,50.722095,-55.857960,108.674202,-8.735684,12.016716,7.006433,120.595421,250.465820,248.571457
157,352198884,43.890987,-56.032856,118.749207,-12.000257,9.027652,5.689031,92.889580,240.621414,236.493500
158,352215551,37.646126,-55.292973,127.159737,-13.365855,6.373585,4.994273,43.835838,218.478607,185.974548
159,352232218,32.652702,-53.659416,132.996796,-11.103200,2.647553,1.379565,-12.816183,196.414246,109.426537
160,352248885,29.014774,-51.942886,136.542358,-9.679813,1.993530,1.267455,-47.129494,153.613220,57.118935
161,352265552,26.981546,-50.103378,137.724899,-7.138774,-1.177447,-1.212408,-65.171295,117.750511,-12.930942
162,352282219,26.994892,-48.066994,137.065598,-2.622909,-3.450867,-2.707612,-27.456896,96.503357,-79.035118
163,352298886,29.235205,-45.881748,134.954391,0.197694,-4.612765,-3.612184,43.401592,74.283951,-138.487061
164,352315553,31.935244,-43.636536,132.413452,2.063771,-8.115975,-4.090230,56.207790,60.237740,-162.180099
165,352332220,34.925262,-41.335331,129.564285,5.017234,-10.784517,-4.970152,65.453346,45.090263,-181.678513
166,352348887,38.317791,-39.034557,126.464462,7.982406,-16.043232,-6.967142,85.014359,25.295998,-196.746307
167,352365554,41.539001,-36.606960,123.599541,10.549423,-19.072216,-10.628984,89.315048,23.738276,-197.914078
168,352382221,44.105648,-34.179752,121.430397,12.413046,-21.192215,-14.661863,80.070175,33.823818,-177.044266
169,352398888,46.093166,-32.401279,120.335846,13.622394,-21.227169,-17.346537,84.674545,35.493309,-114.498650
170,352415555,47.250874,-31.897728,120.425896,14.189825,-18.311186,-17.928333,73.823074,23.035767,-18.920296
171,352432222,47.641132,-32.955044,121.453590,12.030980,-15.021326,-15.809496,57.972980,-5.656292,81.917061
172,352448889,46.713619,-35.207718,123.162399,11.824209,-12.304726,-12.958065,3.317931,-30.727175,156.890579
173,352465556,44.946709,-38.289879,125.402122,13.361707,-11.979815,-10.362503,-24.064579,-52.796268,207.739532
174,352482223,43.382439,-41.876949,127.853203,15.051602,-11.951533,-11.495800,2.399559,-77.207993,230.761795
175,352498890,43.531227,-45.354485,129.798813,12.629746,-12.918204,-10.785585,90.968391,-94.611809,205.007706
176,352515557,45.406326,-48.124840,130.653580,7.746600,-14.525817,-8.207783,151.336548,-95.339256,141.730728
177,352532224,48.445999,-50.295593,130.624451,3.084374,-14.259348,-5.084309,182.520706,-91.136757,94.626320
178,352548891,51.828861,-51.545055,129.232727,1.598192,-12.845324,-0.641705,139.616516,-89.780365,24.108212
179,352565558,54.961185,-51.388489,126.073051,0.921193,-11.719587,-0.392715,41.097107,-90.506493,-77.609619
180,352582225,57.339294,-50.264885,122.124481,-1.066427,-9.637218,1.971182,-39.519997,-88.033630,-138.939713
181,352598892,60.698456,-48.676952,117.115372,-5.339445,-7.357592,3.619718,-25.461721,-119.696991,-181.756287
182,352615559,63.981682,-46.726620,111.620102,-7.651387,-3.315859,6.719769,-45.461327,-143.493729,-206.159256
183,352632226,66.308075,-44.026463,106.004845,-6.993351,3.969281,8.081594,-98.778221,-147.928650,-245.966232
184,352648893,68.118622,-40.894844,100.741066,-7.527008,7.074063,6.360571,-103.116524,-143.313934,-263.010162
185,352665560,70.015388,-37.392467,96.091583,-6.516983,4.603326,7.222010,-60.829407,-128.245178,-273.179413
186,352682227,72.886284,-33.512840,91.398071,-7.022245,6.651691,7.671413,10.329804,-144.654190,-293.288605
187,352698894,77.510010,-30.004707,85.815979,-11.350191,9.175813,7.820463,102.445274,-222.739883,-275.887115
188,352715561,80.143661,-26.644453,80.363815,-13.332198,20.943981,15.575375,4.223401,-244.560669,-253.272736
189,352732228,81.331177,-24.660192,75.686974,-7.344020,27.661804,6.524347,-48.725437,-231.541824,-158.064926
190,352748895,82.496361,-23.388599,71.807556,-0.161825,33.065662,2.280087,-23.359407,-200.768097,-105.417221
191,352765562,84.357613,-23.983696,69.306145,3.659316,33.176979,3.272854,52.860703,-141.618835,19.619423
192,352782229,86.547417,-25.813478,68.768623,4.764000,31.169975,7.526512,119.271057,-38.854202,106.909363
193,352798896,88.277458,-28.730194,70.510544,3.494032,27.648048,10.712822,153.132050,83.933624,178.708923
194,352815563,88.960342,-32.345505,74.653801,0.575304,21.709660,13.069805,168.739288,207.873825,221.548050
195,352832230,87.983070,-36.099880,80.998528,-4.012870,15.560815,14.024158,157.039551,307.686371,232.894211
196,352848897,85.010025,-39.465282,89.342728,-8.724919,10.324036,13.514763,130.137665,381.574402,224.848007
197,352865564,80.103989,-41.981586,99.387726,-10.935515,5.071351,10.960102,100.873390,432.225433,207.918152
198,352882231,73.573380,-43.366562,110.461273,-9.746133,1.269238,8.006443,60.752670,455.499390,191.292297
199,352898898,65.897034,-43.603008,121.456902,-8.480838,-0.002941,5.918128,-4.261715,442.851135,178.484848
200,352915565,57.908653,-42.911823,131.765930,-11.123783,-1.074470,5.192816,-53.144444,415.648590,175.141922
201,352932232,50.004841,-41.083717,140.958862,-11.897552,-1.296232,3.502849,-102.942680,394.750824,152.236496
202,352948899,43.136204,-37.921444,148.383163,-9.128620,2.320240,2.152769,-126.652298,378.902435,98.324211
203,352965566,38.525013,-33.823486,152.869247,-7.558022,-0.620378,2.170290,-117.065224,327.684357,4.034166
204,352982233,34.529453,-29.471655,154.669662,-6.954243,-13.284200,3.348553,-181.273071,263.713654,-81.822556
205,352998900,29.260599,-25.287895,154.003479,0.106779,-15.370481,-0.276745,-332.761536,193.600266,-163.120026
206,353015567,24.448610,-22.208971,150.903214,7.773595,-9.194160,-4.741288,-361.936859,87.052132,-235.687622
207,353032234,21.486361,-20.646914,146.269211,9.199191,-10.977530,-8.617691,-277.668396,-15.608040,-275.126129
208,353048901,20.556103,-20.477068,140.703644,11.025582,-12.763658,-13.804023,-171.533264,-103.534981,-295.692749
209,353065568,22.333691,-21.275661,134.463745,12.335732,-14.844948,-18.920139,-25.347761,-173.353683,-308.233307
210,353082235,27.122271,-22.268808,128.226715,14.051098,-16.235979,-21.242580,149.748779,-200.404938,-290.901611
211,353098902,34.504009,-22.935850,123.433212,13.570958,-12.909481,-16.883144,333.630920,-171.420044,-207.742233
212,353115569,43.609619,-23.560349,121.049118,13.094349,-4.590247,-13.925415,491.298798,-113.026016,-78.621696
213,353132236,53.140602,-24.596151,120.993279,10.756325,-1.643702,-12.228464,571.986633,-44.662956,44.380898
214,353148903,60.936115,-26.153866,122.437645,7.456365,-6.972723,-8.477476,506.348328,13.812359,121.038399
215,353165570,64.306610,-28.227907,124.914177,9.192451,-13.491806,-5.196066,271.615875,59.110287,171.241974
216,353182237,62.622932,-30.254078,128.506012,11.961082,-14.210902,-8.648220,5.821132,112.883156,192.691071
217,353198904,58.023632,-31.495062,132.886414,12.098755,-13.114634,-11.647609,-139.452499,158.067413,176.329468
218,353215571,52.873764,-31.604856,136.495026,11.493402,-16.528830,-12.132992,-194.114426,147.144012,110.076714
219,353232238,48.439304,-31.846542,139.454330,6.256343,-19.467176,-11.447969,-171.155075,106.494072,106.981171
220,353248905,44.977734,-32.347443,141.430481,3.665294,-19.724453,-9.477633,-143.200806,51.375454,90.786591
221,353265572,43.105877,-32.916389,141.614761,2.176909,-15.539951,-9.241514,-104.894478,-19.202904,30.474600
222,353282239,43.475105,-33.749981,139.603790,-0.031382,-13.767559,-6.547732,-42.706818,-106.665588,-39.024788
223,353298906,46.537338,-34.958195,134.891678,-6.120405,-11.290348,-2.976147,25.552221,-217.409119,-113.710274
224,353315573,51.266129,-36.008705,128.163330,-13.114532,-9.144684,4.510861,50.613220,-290.180328,-168.529648
225,353332240,56.465637,-36.393383,120.266914,-15.459658,-5.280289,10.787952,33.277271,-323.378815,-206.683441
226,353348907,62.261929,-35.782921,111.247299,-11.263286,0.732474,12.333668,30.001696,-358.615570,-254.120285
227,353365574,68.505753,-34.114895,101.565170,-8.907956,4.327185,11.883518,42.694279,-392.229279,-288.912537
228,353382241,73.978378,-31.930803,92.329178,-8.369752,5.532245,14.326857,27.302444,-398.855286,-273.070831
229,353398908,77.376823,-29.715052,84.060600,-7.539489,8.329853,15.883251,-49.079323,-380.949097,-233.872269
230,353415575,78.662628,-27.699903,76.758163,-6.721617,13.636099,14.267212,-131.876419,-351.874725,-197.825546
231,353432242,78.327736,-26.458969,70.568047,-5.152318,19.386093,13.821306,-187.620041,-310.256531,-138.833588
232,353448909,76.743263,-26.490454,65.530518,-3.063512,24.973892,13.527952,-228.229538,-265.639771,-56.577007
233,353465576,74.408890,-28.349167,61.938671,0.152858,30.029434,11.319265,-237.739273,-214.097855,60.270054
234,353482243,72.612328,-31.174097,59.617332,2.392674,30.362286,10.161200,-175.401230,-165.067276,128.091476
235,353498910,71.285629,-35.061089,59.205158,4.556653,27.772465,7.823320,-91.596443,-92.946907,215.183365
236,353515577,69.568283,-39.829311,61.030369,5.830894,22.317099,10.275558,-34.894051,-14.851745,298.490173
237,353532244,66.480217,-45.601475,66.646439,2.407531,20.960051,7.203230,45.106892,99.222160,413.308350
238,353548911,61.708511,-51.341843,76.666672,-1.280947,18.398287,6.131680,166.015900,207.543900,482.693909
239,353565578,53.388470,-55.726120,91.517509,-5.075444,13.627881,3.831639,220.281235,305.211060,503.875244
240,353582245,42.182056,-57.705173,109.558250,-8.161108,12.256794,2.382367,235.790924,358.967773,484.781433
241,353598912,31.005592,-56.915203,127.154846,-11.311576,7.971772,1.700695,221.068329,375.782166,428.375946
242,353615579,21.578426,-54.092190,141.445175,-13.631877,5.992289,2.217734,143.711716,364.651581,359.868896
243,353632246,15.095780,-50.146481,151.384384,-15.726726,4.788118,1.953567,83.938622,338.215668,272.861542
244,353648913,11.115236,-45.687675,157.276474,-17.883715,3.989183,1.403379,25.432697,313.100555,169.901978
245,353665580,7.811096,-40.539600,159.585617,-20.115805,2.620788,-0.649658,-101.758644,320.406281,48.766354
246,353682247,4.172285,-34.974068,159.087204,-13.744141,-0.085535,-2.885906,-234.850647,328.862213,-58.621487
247,353698914,1.264310,-29.452274,156.226074,-3.313734,-4.149085,-3.232778,-264.244354,323.232880,-161.075943
248,353715581,-0.705226,-24.119780,152.135880,3.471744,-12.145623,-4.687121,-227.080826,317.978546,-220.910904
249,353732248,-2.537244,-19.204990,147.078110,8.344985,-25.299089,-4.511916,-220.270386,301.780853,-273.842346
250,353748915,-4.421255,-16.015011,141.067657,14.296121,-28.155710,-7.838968,-220.498901,210.913788,-331.691040
251,353765582,-6.128838,-15.386999,135.051697,20.670221,-26.374561,-16.637222,-198.547043,68.549805,-342.698242
252,353782249,-4.762129,-16.267834,130.851654,19.369177,-19.271646,-21.246590,14.718496,-30.523249,-246.472763
253,353798916,2.486625,-17.005508,127.594543,20.954796,-9.698106,-20.076244,380.337402,-41.527672,-188.296173
254,353815583,14.376926,-17.901953,127.013664,17.744743,-1.789440,-12.055704,704.430786,-59.197647,-25.170055
255,353832250,25.710426,-19.570927,128.606018,9.678362,-3.734633,-4.428929,712.117249,-64.202850,119.404793
256,353848917,31.794155,-21.710213,130.643295,6.696033,-9.392672,4.402250,409.555664,-58.569359,162.004547
257,353865584,31.694748,-23.658703,132.957123,11.972121,-8.537442,1.866433,49.099735,-33.067158,170.326065
258,353882251,29.515188,-24.129423,133.773788,13.250169,-3.757673,0.352298,-109.399841,-2.574966,52.841679
259,353898918,25.889584,-24.759975,135.988968,14.462773,-3.867942,-2.464285,-160.977341,21.666660,124.623322
260,353915585,22.073441,-25.570160,139.519867,19.296328,-12.112788,-13.077415,-137.284836,32.421909,194.848053
261,353932252,19.534304,-25.256731,142.228607,11.459625,-14.322215,-8.743426,-81.044617,68.574158,130.451752
262,353948919,17.287960,-24.324482,144.497940,9.203997,-17.942719,-8.128004,-76.151711,90.945038,99.530319
263,353965586,16.047346,-23.145437,145.610291,5.463874,-14.562132,-6.198503,-46.065945,84.114777,38.158413
264,353982253,16.147810,-22.242142,145.576599,0.953746,-14.259853,-6.272095,6.735856,50.369251,-16.894064
265,353998920,17.374342,-21.452412,144.065811,-1.825871,-12.663915,-4.789474,41.329166,19.915421,-94.292755
266,354015587,19.589720,-21.008232,141.285568,-2.857477,-10.084436,-4.141901,73.959930,-25.208277,-155.975266
267,354032254,22.832315,-20.974592,137.349091,-5.358277,-7.963006,-4.464946,111.345535,-79.085464,-206.351425
268,354048921,27.657837,-21.172812,132.053238,-9.343557,-7.369648,-2.871512,176.567444,-138.384872,-263.158264
269,354065588,33.457539,-21.496775,125.766449,-13.132786,-5.195027,1.618817,211.914490,-196.529907,-292.732178
270,354082255,39.935349,-21.989628,118.627914,-14.999585,-1.595922,6.028043,231.038696,-262.583496,-301.380035
271,354098922,47.262138,-22.652763,110.512848,-15.592510,1.901701,7.813007,255.524567,-340.527985,-298.824890
272,354115589,54.974747,-23.110128,101.569633,-16.633312,7.095835,7.549545,254.798920,-403.146301,-289.013885
273,354132256,62.526421,-23.954418,93.083366,-15.383499,14.310142,6.386778,250.586044,-426.424438,-198.956070
274,354148923,69.044540,-25.401762,86.324471,-10.305626,15.977291,6.348993,222.855530,-372.717621,-72.050552
275,354165590,77.898987,-25.401632,77.952637,-8.312111,18.066414,7.614399,316.508087,-436.087280,-129.143295
276,354182257,86.597282,-25.696318,70.655258,0.050481,21.785999,7.553366,333.972137,-394.893158,-35.845760
277,354198924,93.392311,-26.799324,64.671158,0.304781,17.506645,9.725647,250.083038,-323.057037,66.017937
278,354215591,98.163353,-28.575802,59.463158,2.877180,13.841440,9.613230,142.367004,-265.558807,133.722916
279,354232258,101.307266,-30.715788,55.054523,2.972728,16.413555,8.470228,59.177135,-205.863281,165.229019
280,354248925,103.725075,-33.504845,51.806049,3.778316,14.122540,11.145609,42.874203,-125.905304,198.949585
281,354265592,104.770828,-36.691833,50.011227,3.710191,12.171859,10.352457,2.271273,-39.331783,206.839249
282,354282259,103.980385,-40.376480,50.200771,3.225176,12.379088,9.936445,-38.854057,62.524311,211.764420
283,354298926,101.910347,-44.300663,52.499184,1.986589,13.476311,7.747688,-29.777092,151.115936,206.389755
284,354315593,99.286842,-48.649303,56.927147,-0.330864,13.190299,4.997846,36.853184,226.842026,222.431976
285,354332260,95.544098,-52.743660,63.804146,-1.918703,11.953962,4.123060,96.464111,289.828552,209.269043
286,354348927,90.220154,-56.154457,72.879082,-4.048208,12.177064,3.043815,125.428459,325.314545,187.669250
287,354365594,83.322166,-58.532967,83.824287,-5.822176,10.050945,3.338862,140.974869,344.486725,161.581421
288,354382261,76.274551,-59.799454,95.026482,-5.832754,8.420736,0.714196,156.152435,324.318695,135.144363
289,354398928,70.019859,-60.114880,105.439484,-8.928041,9.005702,0.244880,167.325867,292.645050,108.363907
290,354415595,64.327530,-59.561832,115.047104,-10.167510,1.848327,2.655232,158.595184,278.610046,81.496872
291,354432262,58.743629,-58.224804,123.447914,-11.575888,0.775862,2.795314,98.249596,265.976654,53.399574
292,354448929,53.205780,-56.369431,130.462723,-9.745596,-1.644749,3.920432,23.596067,249.626648,34.805038
293,354465596,48.112831,-53.851753,135.787262,-9.730870,-2.896390,1.655046,-41.847351,236.038712,-1.163027
294,354482263,43.493580,-50.469696,139.591644,-7.809745,-3.823005,-0.476650,-95.202858,240.873505,-48.057446
295,354498930,38.766155,-46.159195,142.326645,-7.430874,-5.090398,-2.070339,-159.369034,265.665161,-88.114265
296,354515597,33.352905,-41.146835,144.022873,-4.346865,-4.336565,-4.356410,-252.758667,285.622589,-117.715935
297,354532264,27.888704,-35.823872,144.343399,-1.279857,-5.992460,-4.312743,-314.105011,281.721405,-149.977386
298,354548931,22.210154,-30.794903,143.214920,4.099010,-9.826694,-3.347066,-376.149689,248.618149,-179.306488
299,354565598,17.376184,-26.553854,140.602753,8.743176,-10.254190,-4.943711,-363.567169,192.004883,-215.825836
300,354582265,14.238965,-23.578527,137.176193,13.428493,-16.057737,-7.376720,-273.746887,120.096695,-228.024033
301,354598932,13.122070,-21.954906,133.579758,15.679017,-18.082945,-12.248218,-148.997711,46.623768,-216.510056
302,354615599,15.129624,-21.822731,130.942139,15.597261,-16.692234,-16.138388,62.927402,-29.124418,-144.469070
303,354632266,21.262756,-22.619011,129.172821,15.213099,-12.634027,-14.137138,329.296631,-77.106316,-78.591110
304,354648933,29.759472,-24.842642,129.435394,15.155630,-6.388201,-9.756641,517.569031,-115.331909,70.430748
305,354665600,37.188934,-28.516283,131.793777,10.261391,-8.833108,-4.381534,510.607849,-115.230377,227.138565
306,354682267,41.575294,-32.874519,135.363373,9.816859,-12.451753,-2.924483,373.848846,-86.262962,308.289154
307,354698934,42.446507,-37.564312,139.324417,12.390335,-11.690234,-3.586877,190.827026,-80.079666,332.496490
308,354715601,40.688568,-41.774300,143.018265,11.160686,-10.802912,-6.119939,37.600105,-76.773376,295.129852
309,354732268,37.299976,-45.534439,146.595184,8.553536,-7.273340,-8.000455,-53.539520,-78.643661,262.558533
310,354748935,33.966969,-48.615070,149.592560,7.051317,-6.718435,-9.669771,-66.720741,-79.921448,207.173950
311,354765602,30.955002,-51.214893,152.011749,3.781490,-5.496149,-10.054703,-68.130829,-82.529373,162.544052
312,354782269,30.164455,-53.095318,152.702576,2.594189,-6.644180,-8.592489,-13.216319,-85.327621,79.235550
313,354798936,31.397081,-54.247906,151.553696,0.967904,-7.078418,-6.418847,19.895071,-81.416183,0.285377
314,354815603,34.569569,-54.622971,148.385605,-0.401593,-6.434838,-5.419288,37.180298,-80.157875,-80.494492
315,354832270,38.962814,-54.060837,143.631531,-1.625322,-6.002122,-2.019475,33.255703,-73.612511,-153.356506
316,354848937,43.732952,-53.065178,138.024658,0.242676,-6.775102,-0.961569,16.950581,-88.265839,-189.381271
317,354865604,49.045849,-51.245296,131.243622,-0.475590,-7.785572,1.864098,-1.205073,-106.570923,-251.048218
318,354882271,54.212608,-48.216778,123.754311,-4.397719,-8.784751,4.998635,-31.661758,-116.159622,-322.425842
319,354898938,58.397293,-44.722145,116.419807,-8.500856,-0.986310,5.448263,-66.757477,-137.094330,-342.243530
320,354915605,63.052299,-41.180416,109.628120,-10.636582,-0.893978,5.668139,2.838776,-157.456802,-330.906158
321,354932272,67.217354,-36.875809,103.488777,-12.529295,-0.011825,7.958738,19.139385,-152.232391,-354.371216
322,354948939,70.874794,-32.534603,97.982353,-11.275296,2.859234,7.818804,32.586746,-161.659531,-340.152710
323,354965606,74.128922,-28.605253,92.773575,-9.316518,6.460627,9.667711,37.597046,-186.871933,-305.579895
324,354982273,76.513977,-25.664972,87.795357,-7.758273,9.610871,11.147203,8.260800,-213.506149,-237.898666
325,354998940,77.544861,-23.825172,83.051376,-5.259676,12.241426,11.680918,-55.826904,-228.164078,-165.540543
326,355015607,77.118721,-22.706791,78.485191,-1.598369,14.989498,10.953211,-132.272614,-231.879028,-120.669937
327,355032274,76.063675,-22.961422,74.046768,0.063380,17.737213,5.397439,-165.113831,-243.308395,-42.125179
328,355048941,75.125977,-24.124973,70.174942,0.362572,20.071535,5.589653,-147.534103,-224.653732,14.522876
329,355065608,74.291191,-25.935158,67.384262,2.200164,21.617331,2.885573,-119.425125,-175.988297,64.615578
330,355082275,74.052956,-28.178907,65.809395,5.496779,20.746700,2.689169,-55.787350,-118.664268,106.410408
331,355098942,74.169403,-30.763540,65.536987,7.444199,18.873009,3.278109,0.427980,-57.115498,145.073761
332,355115609,74.281975,-33.696255,66.849274,6.546995,17.410522,4.947735,50.230873,15.304675,187.221771
333,355132276,73.595787,-36.853302,70.079803,3.549740,15.952077,6.312056,72.282600,98.728271,225.513824
334,355148943,71.668900,-39.666805,75.142082,0.626945,13.708826,7.938837,74.052567,176.313461,231.910522
335,355165610,68.199638,-42.069813,81.724670,-2.703447,11.564234,7.915928,51.955647,230.143906,237.413635
336,355182277,63.425369,-43.963898,89.409225,-7.782742,10.058072,8.879227,29.878195,260.005646,241.253754
337,355198944,57.296516,-45.439114,97.978806,-13.861442,8.983805,9.203495,-4.152494,272.908691,257.095703
338,355215611,49.788940,-46.638691,107.043259,-18.060707,5.925148,6.966845,-56.965382,259.932220,281.648712
339,355232278,42.374180,-47.397903,115.646469,-17.950556,3.987744,3.910810,-65.321152,220.974915,276.414276
340,355248945,35.105129,-47.750893,123.282715,-15.210226,0.533812,0.625790,-96.103920,176.017288,253.938675
341,355265612,28.892380,-47.442448,129.313965,-14.837851,-1.720485,1.310926,-103.848549,144.131836,196.830078
342,355282279,24.408827,-46.420242,133.583603,-13.938257,-6.803079,-0.146551,-80.254959,132.437042,128.580368
343,355298946,21.842220,-44.589439,136.012390,-7.954212,-10.031126,-0.892679,-48.484638,140.319595,50.555687
344,355315613,21.348549,-42.267605,137.076324,1.547153,-10.496727,-2.087152,15.793011,145.793243,-8.377935
345,355332280,23.006226,-39.621037,137.025406,5.129042,-8.932410,-2.514459,98.953026,145.365585,-62.281025
346,355348947,25.741827,-36.595146,136.300690,4.344572,-9.651958,-4.938431,138.765549,150.421265,-106.294456
347,355365614,27.929911,-33.180820,135.125336,6.553601,-10.037541,-7.217098,92.398613,155.818985,-144.291016
348,355382281,29.453928,-29.655479,133.348038,11.314462,-11.519748,-8.156778,37.300465,140.953613,-181.559128
349,355398948,31.263546,-26.480528,130.973877,16.279764,-15.589246,-8.271152,42.990974,99.904488,-204.899521
350,355415615,33.693859,-24.270729,128.843948,15.721619,-17.410885,-11.300768,92.500778,48.879940,-168.750641
351,355432282,36.849541,-23.572247,127.829353,15.344917,-13.235006,-14.125386,166.136124,1.095945,-69.764183
352,355448949,40.915882,-24.645657,128.040802,14.687853,-6.563218,-15.528457,250.646423,-43.890556,49.342312
353,355465616,44.706001,-27.330542,129.083862,12.410759,-4.873288,-13.545817,256.289246,-80.994278,150.677246
354,355482283,46.355293,-31.023399,130.742661,11.461255,-9.310768,-6.953512,148.962616,-94.239288,218.915985
355,355498950,45.759304,-35.151180,132.909729,14.041138,-9.271825,-7.086639,36.773762,-94.454865,253.841339
356,355515617,43.904583,-39.383549,135.617783,14.583989,-7.231209,-8.725273,-11.289249,-89.958046,270.654816
357,355532284,41.699780,-43.462303,138.871445,11.565386,-7.402670,-9.281735,-1.504012,-81.130180,273.596558
358,355548951,39.848370,-46.510414,141.835037,7.863649,-11.882714,-7.764779,16.187822,-57.449917,214.612274
359,355565618,38.337772,-48.563095,144.232315,5.207564,-13.079075,-6.831462,16.996744,-35.475605,152.993866
360,355582285,37.632133,-49.812599,145.655380,3.590906,-10.596589,-5.685637,23.778801,-25.883858,90.119225
361,355598952,38.136688,-50.208210,145.961823,2.932094,-8.547532,-3.792067,45.842609,-12.621360,23.914309
362,355615619,39.674061,-49.693081,145.076324,1.543833,-7.573659,-3.479267,53.045483,1.438876,-45.989082
363,355632286,42.570259,-48.335014,142.723022,0.380852,-7.536108,-1.832305,68.641083,-0.669499,-123.307732
364,355648953,46.803837,-46.373829,138.704330,-0.974260,-6.854999,1.810685,78.049377,-32.384007,-198.794586
365,355665620,51.742626,-43.776993,133.172104,-4.427852,-4.388043,3.068200,62.603180,-77.182747,-270.832153
366,355682287,56.619061,-40.334465,126.866531,-6.781395,-1.406860,4.417508,40.358467,-108.148643,-331.610016
367,355698954,61.320389,-35.692944,120.263168,-8.291264,0.217014,3.278613,39.161995,-125.228775,-399.192749
368,355715621,65.285072,-30.013727,114.028519,-6.251802,0.624474,3.420102,36.008579,-128.986923,-445.256226
369,355732288,68.938034,-25.232580,108.380524,-5.293823,2.772764,1.539231,63.256451,-166.268524,-380.814758
370,355748955,71.593300,-19.219961,102.701561,-7.157568,-3.225947,16.132977,31.632151,-176.370346,-445.789978
371,355765622,70.968643,-14.551862,97.246857,-10.142740,2.772456,8.507736,-130.997269,-207.931442,-365.587616
372,355782289,69.504265,-11.604139,91.455238,-12.508178,5.428619,7.117050,-164.887131,-259.896088,-280.779968
373,355798956,68.469940,-9.664489,85.511055,-12.890310,9.396924,3.714431,-126.302299,-286.593597,-234.251968
374,355815623,69.189499,-8.715325,79.596077,-11.161009,13.088625,2.778299,-12.044466,-307.184418,-179.601562
375,355832290,71.632904,-8.198584,74.275398,-7.305178,15.667562,4.036153,101.036781,-288.138184,-135.100311
376,355848957,75.330933,-8.185913,69.920784,-1.244757,17.221886,4.115438,186.019669,-248.760635,-74.327255
377,355865624,79.207901,-8.812741,66.626350,2.478826,18.509979,6.894520,204.804794,-200.002579,-6.496746
378,355882291,82.090797,-9.992980,64.574013,4.224315,19.604492,8.681910,154.293762,-132.382858,50.006966
379,355898958,83.393425,-11.434892,64.061325,6.194174,20.779076,8.472620,73.895370,-41.902370,81.844566
380,355915625,82.999107,-13.216797,65.246796,7.366321,20.307917,8.433100,-7.014809,55.349808,114.191872
381,355932292,81.155083,-15.323427,68.137917,5.810331,19.027397,5.282504,-66.382233,148.120529,148.103409
382,355948959,78.793198,-17.717688,72.654945,2.722069,17.541958,4.448932,-63.079872,229.909195,186.353378
383,355965626,75.876991,-20.272861,78.694603,-1.694950,15.530927,4.804176,-55.355438,299.776154,224.262375
384,355982293,72.098114,-22.703791,86.155396,-6.046638,12.020179,5.518730,-60.932106,359.240173,254.562790
385,355998960,67.320442,-24.493647,94.686081,-8.500586,7.714173,6.889069,-79.766457,401.781921,262.834930
386,356015627,61.406097,-25.776602,104.046066,-9.789807,4.938009,4.729504,-114.121078,424.150360,288.844635
387,356032294,54.491894,-26.618862,114.008034,-10.466884,3.217364,3.224634,-148.575943,426.836945,326.953156
388,356048961,46.878540,-26.590235,123.905861,-11.871211,1.255398,2.511641,-188.371460,410.948273,334.738251
389,356065628,38.723686,-25.464363,132.964432,-12.887043,-2.972700,2.104976,-248.370682,380.433868,312.251099
390,356082295,30.172682,-24.380238,141.317459,-10.581182,-5.322546,-0.839381,-299.510559,309.834686,337.861389
391,356098962,22.648169,-22.290705,147.019684,-6.645869,-5.921189,-0.656926,-313.979858,251.154617,225.473907
392,356115629,15.114729,-19.991791,150.793793,-5.438202,-4.478441,-2.515268,-368.531067,198.066895,155.087448
393,356132296,7.722121,-17.851452,153.085403,-3.529936,-6.130447,-2.291347,-397.272095,150.860519,101.949127
394,356148963,0.900252,-15.872379,154.256516,-0.374924,-5.096792,-0.272374,-387.294342,122.687737,58.005199
395,356165630,-4.386219,-14.169414,154.324570,1.929498,-5.253793,0.879865,-314.535156,101.201958,6.916870
396,356182297,-7.560930,-12.835512,153.246094,3.878557,-6.822910,-0.907679,-204.017899,85.301323,-54.379189
397,356198964,-9.165656,-11.939128,151.272812,6.744478,-11.267965,-3.626588,-120.125664,69.156776,-106.705788
398,356215631,-9.796024,-11.620204,148.466324,11.091816,-16.134331,-6.427899,-70.664284,45.127079,-159.550278
399,356232298,-9.499117,-12.178674,145.260513,15.419100,-19.154379,-8.813755,-20.344835,-2.414414,-191.276764
400,356248965,-7.374642,-13.668768,142.444946,18.438925,-20.019972,-11.718368,91.141754,-65.237114,-176.112427
401,356265632,-3.456385,-15.683283,140.867340,19.280804,-16.018827,-13.911312,212.553574,-112.722206,-102.709671
402,356282299,1.823653,-17.964651,141.146957,18.477764,-9.855803,-13.413580,323.093292,-138.213943,13.989513
403,356298966,7.463181,-20.328381,143.209732,14.746634,-7.836254,-11.092247,380.369263,-133.044357,127.967339
404,356315633,12.174556,-22.500376,145.982147,10.568184,-12.713963,-7.801773,344.821899,-103.142548,174.783157
405,356332300,15.318541,-24.406256,148.844147,10.661967,-11.909438,-6.353606,258.409363,-74.778976,180.144775
406,356348967,17.548349,-26.196705,151.270599,9.793340,-9.129968,-6.730140,197.446182,-66.953415,156.586823
407,356365634,19.306484,-27.667595,152.758240,6.629768,-8.524190,-7.587553,147.360764,-59.743092,103.349258
408,356382301,20.669537,-28.832462,153.230545,3.505705,-7.802625,-7.575042,96.639267,-58.327030,47.314495
409,356398968,22.385300,-29.843840,152.807678,1.145159,-8.495104,-6.910598,91.952698,-65.742905,1.665752
410,356415635,25.187355,-30.945589,151.658997,-0.230303,-6.925849,-6.546942,134.675735,-85.642975,-27.754272
411,356432302,29.317570,-31.867926,149.439423,-0.911661,-8.175857,-5.690365,179.817261,-102.412773,-75.716415
412,356448969,34.844864,-32.345997,145.914536,-3.847221,-9.201313,-3.546149,220.583069,-120.612511,-136.559204
413,356465636,40.403507,-32.254601,141.294586,-6.664557,-10.039664,-0.413158,186.698608,-139.839813,-188.894348
414,356482303,45.653961,-31.234701,135.309402,-8.637216,-8.297816,1.763814,127.301285,-164.806519,-264.892548
415,356498970,50.429604,-29.252995,128.283600,-11.757359,-4.561764,3.819212,75.341995,-192.508011,-331.694122
416,356515637,54.057144,-26.664713,121.308983,-13.684097,0.391598,6.889605,22.629908,-198.363907,-348.867767
417,356532304,58.741329,-23.957729,114.014709,-10.494151,3.354496,7.832331,95.000946,-240.860992,-353.976532
418,356548971,62.157394,-21.319557,106.975479,-5.366714,8.370232,9.606840,43.573528,-262.208710,-329.717224
419,356565638,64.275688,-19.171082,100.321426,-5.656337,12.734234,6.650410,-9.737413,-277.425903,-283.700043
420,356582305,66.639839,-16.760212,93.674942,-8.123344,15.736367,9.810934,20.150150,-286.113037,-288.990021
421,356598972,68.873009,-15.499245,87.897217,-7.395229,22.050232,7.179220,39.053947,-280.645111,-196.049835
422,356615639,71.374031,-15.287749,83.049698,-2.703502,24.281439,10.501280,74.246811,-260.409882,-107.326836
423,356632306,73.692947,-15.857865,79.478104,4.177565,24.538897,9.759594,83.032394,-208.174042,-29.444511
424,356648973,75.069862,-17.379320,77.612991,6.744470,21.083639,10.119989,52.071606,-128.836807,58.887424
425,356665640,75.610924,-19.629513,77.538284,6.820242,17.362585,7.591761,32.518169,-39.259617,129.348328
426,356682307,74.916580,-22.493912,79.033913,4.219152,13.994310,6.680666,-7.905095,36.308815,187.277344
427,356698974,73.037231,-25.879045,81.798622,0.393000,12.368593,5.350611,-43.236752,88.441658,236.699554
428,356715641,70.509148,-29.578234,85.601562,-2.684442,11.766192,4.508752,-43.895287,121.513397,273.640350
429,356732308,67.491501,-33.150814,90.508705,-5.657686,10.463156,4.500802,-26.141455,157.009308,289.792999
430,356748975,63.966442,-36.542381,96.552315,-7.667426,8.034094,3.732094,-2.573546,186.790848,307.333496
431,356765642,59.956406,-39.763809,103.589622,-8.409892,5.791224,2.275975,22.047398,201.382553,326.098511
432,356782309,55.521355,-42.795849,111.240242,-8.884841,5.209895,0.238248,38.590038,193.802673,337.347809
433,356798976,50.535336,-45.504269,119.079033,-9.135040,3.607621,-0.816077,30.303135,171.086655,332.171051
434,356815643,45.187653,-47.688873,126.757523,-10.457882,1.084750,-0.006701,15.692786,145.991486,309.023315
435,356832310,39.665852,-49.163704,134.092194,-9.781252,-1.573587,0.086441,-0.305595,130.858337,274.771637
436,356848977,34.180943,-49.851776,140.865341,-6.995867,-3.432586,0.248319,-18.314198,124.647964,235.362442
437,356865644,29.833752,-49.761925,146.179108,-4.437296,-4.592401,1.409889,-15.652500,112.735138,171.308350
438,356882311,27.315388,-49.234497,149.577057,-2.505857,-5.807491,0.907793,5.505325,90.245384,100.878136
439,356898978,26.383820,-48.425224,151.249985,-2.963375,-4.687520,0.737119,21.223358,72.295258,36.773754
440,356915645,26.195679,-47.299725,151.469788,-2.458337,-4.371149,-1.158001,0.042089,63.597443,-22.214554
441,356932312,26.395350,-45.844707,150.701569,-1.172599,-3.360410,-2.919963,-19.951666,63.364567,-67.308235
442,356948979,27.293982,-44.197632,149.216187,0.914395,-3.545815,-3.745350,-7.595839,58.855999,-101.047951
443,356965646,29.602932,-42.632431,147.200775,4.130473,-6.750310,-4.342347,56.938023,39.845909,-122.175217
444,356982313,33.640377,-41.170124,144.781479,6.372220,-8.681911,-6.030440,146.782227,17.167679,-138.202423
445,356998980,38.490650,-39.946293,142.255692,8.522074,-11.484741,-7.819483,193.942276,-9.344166,-136.495453
446,357015647,43.222965,-38.724663,140.214218,9.419175,-13.327268,-9.105633,207.764282,-7.475047,-119.786278
447,357032314,47.758373,-37.778713,138.724854,10.919900,-14.262185,-10.516912,218.267502,-11.217521,-89.829971
448,357048981,51.859772,-37.451077,137.966583,12.002463,-16.319740,-10.381027,219.791550,-15.824126,-38.401382
449,357065648,54.758812,-37.976952,137.984818,13.566864,-14.361071,-10.687615,176.082932,-19.159386,25.733059
450,357082315,56.033791,-39.145172,138.609146,13.583411,-9.918043,-10.297559,101.316910,-16.714754,74.274712
451,357098982,55.481903,-40.421204,139.901627,12.090901,-8.910109,-7.166775,17.989754,5.147350,96.791809
452,357115649,53.446083,-41.364792,141.877441,11.458094,-8.884245,-4.642296,-43.053696,38.962963,98.143066
453,357132316,50.447628,-41.682194,144.129654,11.523029,-7.779531,-3.722069,-88.839088,66.848045,77.368416
454,357148983,47.090843,-41.342731,146.489883,10.508698,-7.274320,-2.717024,-106.060593,92.070473,54.604702
455,357165650,44.276199,-39.914608,148.254517,8.643440,-8.708485,-1.506529,-98.453804,116.230888,-5.122844
456,357182317,42.238655,-37.833797,149.643219,5.904729,-8.721996,-1.342648,-68.484276,134.232590,-38.252407
457,357198984,41.066376,-35.296730,150.624451,5.563461,-9.555203,-1.198677,-33.806366,144.009964,-65.768867
458,357215651,40.544544,-32.501919,151.028122,4.851958,-9.190701,-2.125803,-16.367928,138.898315,-94.289383
459,357232318,41.025742,-29.663990,150.260864,3.506955,-11.342369,-1.496626,6.513231,101.990387,-140.994324
460,357248985,42.719135,-26.892710,147.784561,-1.826931,-12.389831,-0.983444,32.579678,35.264130,-208.306274
461,357265652,45.994320,-24.306620,143.792328,-6.871662,-13.522642,-0.600912,94.302109,-41.320160,-262.783234
462,357282319,50.154163,-21.902559,138.534821,-9.398609,-10.163057,0.483715,126.994621,-120.748497,-300.990936
463,357298986,54.926830,-19.521194,132.278259,-10.808784,-4.324579,1.439418,154.680008,-193.086899,-326.738373
464,357315653,59.942719,-17.269396,125.449837,-12.519279,0.553635,2.511523,172.689194,-256.175049,-322.865173
465,357332320,64.398857,-16.041840,118.953255,-12.791427,6.048938,3.284317,156.775681,-297.030853,-239.269043
466,357348987,68.500198,-13.326954,111.678825,-11.809427,10.587697,13.149401,136.495895,-323.169495,-317.711517
467,357365654,70.353271,-11.819526,104.772331,-5.632852,14.924762,4.297304,22.282833,-347.978546,-226.596390
468,357382321,69.275581,-10.781152,97.917007,-1.579682,18.237358,14.338606,-143.715393,-358.178619,-197.531555
469,357398988,65.773354,-11.116108,91.278366,-9.236937,22.122597,17.969364,-284.062012,-370.188141,-130.966705
470,357415655,65.655525,-12.352620,84.501274,1.708463,12.874922,4.668028,-88.269592,-394.413513,-96.232567
471,357432322,66.303696,-14.135152,78.410149,-1.787278,17.775509,4.408141,-43.376331,-369.462311,-47.281403
472,357448989,67.669243,-16.055071,73.782928,-1.029457,19.249123,-2.594223,11.073291,-292.742371,1.067969
473,357465656,68.881439,-18.343697,70.948624,1.156121,17.660135,2.665437,23.903635,-202.728699,67.261612
474,357482323,69.842484,-20.837242,69.862595,4.385195,16.039307,3.664842,37.279411,-111.154190,118.192642
475,357498990,70.394028,-23.460506,70.394501,5.402007,14.553168,6.194510,46.595951,-26.688189,157.854813
476,357515657,70.113007,-26.189796,72.626549,4.348699,14.143700,7.819447,40.857887,58.136059,194.930649
477,357532324,68.680527,-28.947031,76.641640,1.960259,14.747058,7.178785,27.088381,140.768555,229.656815
478,357548991,65.999313,-31.552586,82.336449,-1.979361,14.869930,6.042582,12.905218,211.264725,257.537811
479,357565658,62.135380,-33.904110,89.359619,-5.999969,13.961668,4.543304,-2.240065,256.225800,281.379242
480,357582325,57.166729,-36.074780,97.463478,-9.996563,11.746740,3.901001,-17.387859,277.107117,313.056274
481,357598992,51.218060,-38.001774,106.347382,-12.628173,9.199256,3.117011,-33.802368,276.587921,342.045624
482,357615659,44.625336,-39.479954,115.535660,-12.919038,7.870445,2.001402,-48.462494,258.895355,353.355988
483,357632326,37.534355,-40.175961,124.400955,-11.088346,7.252265,2.178372,-82.692940,236.089920,334.827759
484,357648993,30.871960,-40.124481,132.544266,-11.331543,5.802236,3.397991,-82.713776,211.602859,306.691284
485,357665660,26.134909,-39.411469,139.535873,-11.725454,1.326558,3.653377,-14.058119,190.577164,262.564667
486,357682327,23.110559,-38.008190,144.982590,-10.546610,-4.913257,2.831753,24.631201,181.924393,196.421967
487,357698994,20.521229,-36.049583,148.733627,-6.030772,-9.071657,0.602010,-18.148790,175.046936,122.847275
488,357715661,18.288710,-33.934551,150.747086,-1.260696,-8.881431,0.220511,-63.035408,151.787018,50.921329
489,357732328,16.479649,-31.954119,151.234955,2.110627,-9.897210,-0.700230,-91.017159,119.955872,-12.305124
490,357748995,14.821594,-30.049166,150.050278,4.444494,-11.490388,-2.875863,-134.505157,92.824730,-89.728500
491,357765662,13.822029,-28.291782,147.300873,8.800644,-14.506626,-4.321329,-138.813339,65.696770,-165.848984
492,357782329,13.841649,-26.833466,143.160812,12.750563,-16.655403,-6.652711,-112.237671,31.423843,-234.905487
493,357798996,15.365934,-25.725821,137.951218,15.543066,-19.451981,-9.966426,-45.486053,-7.299005,-288.090210
494,357815663,18.857777,-24.762985,132.546768,15.184106,-19.145969,-16.061886,72.570618,-32.086655,-297.415131
495,357832330,23.782873,-24.090940,128.379913,14.586308,-15.529727,-19.414272,193.486465,-46.233826,-226.838165
496,357848997,29.940777,-24.264404,126.456459,12.858093,-7.054902,-18.624237,323.663696,-57.931644,-89.343208
497,357865664,36.570717,-25.230192,126.330498,10.756607,-3.819907,-16.078152,396.118988,-53.330708,25.972780
498,357882331,42.405716,-26.717596,127.293304,7.660891,-6.864989,-13.151516,376.884949,-36.956707,96.813538
499,357898998,46.426632,-28.839706,129.115265,7.082606,-13.164193,-10.526454,293.675262,-24.352182,158.189789
500,357915665,48.929508,-31.260376,131.241272,9.493289,-14.745890,-10.226112,215.521896,-17.247677,181.730667
501,357932332,50.865047,-33.299339,132.988968,9.620291,-13.123304,-9.221313,173.612732,-12.107875,150.707886
502,357948999,52.435123,-34.368256,133.961700,7.495970,-13.297715,-7.484591,128.181686,-2.905713,80.426865
503,357965666,53.537659,-34.122265,134.243088,5.150969,-11.228568,-4.522038,77.133911,18.889997,-3.310899
504,357982333,54.470669,-33.238117,134.189224,4.078484,-10.048669,-3.276882,55.660240,27.861551,-44.408512
505,357999000,55.247677,-31.554989,133.681580,4.944346,-7.258584,-1.260382,31.762556,35.951550,-97.277863
506,358015667,55.963810,-29.432190,132.648987,6.197737,-5.701684,0.211223,12.988685,26.741278,-135.138794
507,358032334,57.061237,-27.369228,131.101639,4.343991,-5.681733,0.889132,23.151211,-0.977048,-148.162903
508,358049001,57.603683,-25.480865,128.894333,0.320938,-6.407293,2.838268,-24.915638,-39.854053,-159.257050
509,358065668,58.729008,-23.316881,125.490974,-3.328665,-4.631386,4.676386,-15.371606,-90.693428,-208.234634
510,358082335,60.914505,-20.768679,120.864883,-6.499738,-4.256696,8.907736,28.364706,-146.752411,-261.298828
511,358099002,63.762379,-17.794422,115.381210,-12.193842,-3.071745,13.397974,63.563099,-193.444641,-301.996613
512,358115669,66.537308,-14.481120,109.368874,-13.306808,-0.987636,16.919855,67.532547,-232.125458,-325.744263
513,358132336,68.676720,-11.368251,103.154144,-11.805270,2.503442,14.860428,46.301403,-266.081879,-310.872345
514,358149003,69.518387,-9.019662,96.866295,-8.871750,6.051671,10.000139,-14.826819,-297.755646,-263.896454
515,358165670,69.744179,-7.918546,90.845551,-10.227365,9.393232,7.185591,-38.160015,-313.064301,-186.171036
516,358182337,69.657082,-6.063584,84.931885,-12.746084,16.334713,13.383709,-46.901020,-292.805817,-226.430328
517,358199004,69.517151,-5.315187,80.004623,-8.359735,19.297993,6.471170,-36.208382,-261.100525,-144.653183
518,358215671,69.787582,-6.174042,76.208313,-2.431945,21.387943,1.053405,-5.103876,-231.435257,-30.538599
519,358232338,70.102989,-7.284190,73.671883,-0.446013,22.444494,0.517472,2.555493,-165.822906,10.654902
520,358249005,70.251633,-8.987432,72.845543,0.471769,22.369694,0.300052,3.355680,-81.824074,79.366722
521,358265672,70.224236,-11.100995,73.701416,2.467660,20.220118,2.038283,8.758717,3.737375,136.268723
522,358282339,69.638443,-13.609388,76.212257,2.635117,17.380760,2.240499,-1.454349,85.641457,191.626007
523,358299006,68.361435,-16.470131,80.237900,0.674655,14.505854,2.645622,-12.439183,155.361908,243.521576
524,358315673,66.259430,-19.528225,85.606216,-1.865341,12.223084,2.676112,-24.998886,210.999969,287.044617
525,358332340,63.462383,-22.680443,92.042938,-3.036764,10.733614,3.087831,-27.069868,245.018234,323.788727
526,358349007,59.997406,-25.860968,99.267624,-2.900712,10.626795,4.034171,-27.914175,256.883087,354.668884
527,358365674,55.767086,-29.030531,107.194572,-4.349526,10.693982,5.723032,-32.667561,255.652313,384.841461
528,358382341,50.870926,-31.863266,115.619820,-7.065305,9.768022,7.202650,-35.574780,247.253937,395.976593
529,358399008,45.514221,-34.114559,124.217690,-7.945446,7.500577,7.818481,-38.461136,231.742966,388.502106
530,358415675,39.960079,-35.820656,132.526566,-8.067643,4.966905,7.492403,-45.504963,201.289719,368.957214
531,358432342,34.743450,-37.043224,140.270508,-10.135575,-0.228805,9.657780,-35.123039,167.689316,341.166962
532,358449009,29.513651,-37.752266,146.998596,-9.276834,-4.564385,8.687412,-66.753632,133.701035,293.795197
533,358465676,24.249628,-38.083900,152.202820,-6.728889,-4.953012,6.722643,-122.188766,92.802582,228.375076
534,358482343,19.383450,-38.181217,155.485977,-4.095099,-4.919000,4.615714,-168.661667,51.342937,145.738358
535,358499010,15.877205,-38.338089,156.921570,-2.502831,-7.258841,1.911139,-155.417542,10.695750,67.048775
536,358515677,14.278811,-38.659824,156.694504,-0.171531,-9.732362,-1.963281,-102.787560,-22.234072,-5.515256
537,358532344,15.097891,-39.033096,155.121414,3.032771,-9.402122,-6.100552,-8.485476,-41.128883,-65.645767
538,358549011,17.703854,-39.114109,152.438370,7.460721,-11.946240,-8.879445,56.420971,-40.793892,-118.716217
539,358565678,22.083284,-38.770088,148.609360,12.135072,-16.549522,-13.203649,119.834457,-42.273434,-175.225464
540,358582345,28.909561,-38.229259,144.130859,13.224676,-20.087162,-17.829704,243.674194,-62.172554,-203.958557
541,358599012,37.319519,-37.885357,139.924103,12.468932,-20.368992,-20.797375,350.342560,-92.291290,-177.919708
542,358615679,46.342529,-38.136009,136.847946,10.041942,-15.502308,-21.305500,429.107086,-109.249184,-98.479141
543,358632346,55.413368,-39.358528,135.476990,9.587747,-10.257366,-19.341734,494.187347,-97.144852,16.377338
544,358649013,62.961700,-41.600151,135.865921,12.251600,-8.894253,-14.691872,469.450439,-54.708710,124.665871
545,358665680,67.695831,-44.608070,137.668167,15.867577,-10.076883,-10.868691,359.336700,-4.598332,197.021942
546,358682347,69.763000,-47.073143,140.161728,18.123245,-11.819433,-8.727754,232.818665,42.463673,175.673172
547,358699014,69.483131,-48.677017,143.160950,16.031586,-7.045362,-9.060266,118.155182,78.604164,132.285934
548,358715681,66.899017,-49.872837,146.518875,12.222514,-4.309142,-8.312112,-0.854609,94.324799,115.516754
549,358732348,63.022758,-50.236465,149.657410,10.734247,-5.031802,-6.281124,-86.704750,99.226128,71.044640
550,358749015,58.857494,-49.446651,151.698547,8.229710,-6.560526,-4.551029,-154.832550,90.954491,-2.930784
551,358765682,55.529865,-47.769505,151.965515,5.136778,-7.418389,-3.156147,-186.160431,62.307133,-78.714928
552,358782349,54.377064,-45.382015,149.363617,-0.865723,-7.715853,-0.480565,-181.080612,-6.755202,-178.756851
553,358799016,56.205837,-42.414368,144.051529,-5.431566,-4.827561,5.049825,-109.896584,-88.635246,-276.878815
554,358815683,59.187305,-38.984303,137.398453,-11.700624,-3.723647,9.545578,-80.150589,-147.080215,-335.303223
555,358832350,62.807304,-34.777649,130.104279,-16.830242,-0.958311,11.698524,-44.323475,-185.100403,-390.004333
556,358849017,66.809242,-30.622818,123.347534,-19.315022,2.945127,9.299881,22.224569,-203.834793,-370.395813
557,358865684,70.338867,-26.273190,117.853783,-17.429544,5.918885,7.896824,55.956467,-175.636658,-348.550171
558,358882351,73.414009,-22.227306,113.688797,-13.333494,11.180889,6.110001,83.152771,-142.138382,-301.448639
559,358899018,76.173103,-19.092018,110.714653,-7.316936,11.064627,5.742331,103.947548,-112.826050,-225.289566
560,358915685,78.881271,-16.458475,107.645874,-0.920892,11.394971,1.854342,107.652679,-138.100281,-192.148270
561,358932352,80.748573,-14.428257,104.627319,2.815053,7.520489,1.596223,65.229912,-151.294388,-150.790802
562,358949019,81.523605,-12.307626,101.784508,0.749031,4.357644,3.965914,8.523279,-145.372528,-151.333344
563,358965686,81.539772,-10.623533,99.317955,-3.229206,3.572637,4.673788,-26.967127,-129.588837,-121.370071
564,358982353,81.200516,-9.798392,97.440414,-3.689976,2.157446,5.681835,-38.843208,-103.185280,-65.672562
565,358999020,80.871971,-9.336103,95.894264,-2.812329,2.880836,3.513964,-33.657791,-87.040771,-41.749310
566,359015687,80.929268,-9.158858,94.615891,-1.989084,2.431432,1.751339,-7.420054,-74.069595,-22.579996
567,359032354,81.249931,-9.170669,93.590889,-1.153081,2.438372,0.941437,10.911820,-61.089874,-8.817434
568,359049021,81.750259,-9.327553,92.823418,-0.770531,2.282664,0.447075,24.083746,-47.338413,2.472739
569,359065688,82.314804,-9.472640,92.341606,-0.336822,2.043768,0.799263,30.616234,-30.447914,4.542386
570,359082355,82.610977,-9.489874,92.165878,0.127745,2.015675,0.857335,17.501461,-11.439237,-0.467829
571,359099022,82.729263,-9.521304,92.219429,0.260450,2.384923,0.427170,9.098971,1.907640,2.139641
572,359115689,82.651993,-9.558024,92.449387,0.426015,2.309879,1.000237,-0.876826,12.220996,3.775743
573,359132356,82.427940,-9.635245,92.785782,0.785446,2.171493,0.877005,-8.602769,18.136042,7.031997
574,359149023,82.069168,-9.666514,93.185272,1.089786,2.198069,1.047074,-16.027933,22.166016,4.894939
575,359165690,81.485489,-9.614834,93.679626,0.931871,1.709759,1.396089,-28.569159,28.390133,0.957901
576,359182357,80.602760,-9.440932,94.282982,1.108240,1.728267,1.264997,-45.482178,35.894646,-4.908271
577,359199024,79.604752,-9.275854,95.049599,0.542319,1.922915,0.500216,-50.906536,45.417213,-2.119114
578,359215691,78.706596,-9.109089,96.019844,0.726302,2.074848,-0.063380,-43.093319,57.326988,0.818975
579,359232358,78.026657,-8.978365,97.170769,0.910213,2.222404,-0.454316,-28.440544,67.381950,5.898338
580,359249025,77.649773,-8.906543,98.484627,0.989694,2.440108,-0.674049,-8.854049,76.037979,12.018418
581,359265692,77.415398,-8.932141,100.005630,0.675561,2.248343,-0.464041,1.597118,86.703072,20.783567
582,359282359,77.233688,-9.034310,101.692986,0.217982,1.864749,-0.257916,6.419285,95.220726,27.739708
583,359299026,77.046616,-9.175927,103.478554,-0.146399,1.198199,0.083874,7.247902,100.244835,31.641005
584,359315693,76.669075,-9.322331,105.278152,-0.676620,-0.001136,0.964416,-3.777997,100.787720,32.597683
585,359332360,75.962875,-9.509587,107.023148,-0.776062,-1.115885,1.325838,-23.722132,96.703781,35.165600
586,359349027,74.864189,-9.749535,108.666885,-0.067496,-1.395016,0.396566,-47.902412,89.479179,38.238808
587,359365694,73.660637,-10.017310,110.152412,0.321414,-1.155204,-0.679940,-55.390980,79.166656,39.104935
588,359382361,72.642624,-10.300855,111.447128,0.209957,-1.289710,-0.818384,-45.858017,67.257515,38.274029
589,359399028,71.783119,-10.587428,112.555267,-0.095923,-1.704782,-0.555627,-37.999607,56.012238,36.180782
590,359415695,70.997704,-10.879279,113.520119,-0.082250,-1.759948,-0.626037,-34.825554,47.321018,34.585728