sep=,
DeviceTag:,DOT5
FirmwareVersion:,3.0.0
AppVersion:,2023.6.0
SyncStatus:,Synced
OutputRate:,60Hz
FilterProfile:,Dynamic
Measurement Mode:,Custom modes - custom mode1
StartTime: ,2026-06-01_12:47:24_347 GMT+2
© Movella Technologies B. V. 2005-2026

PacketCounter,SampleTimeFine,Euler_X,Euler_Y,Euler_Z,FreeAcc_X,FreeAcc_Y,FreeAcc_Z,Gyr_X,Gyr_Y,Gyr_Z
1,646167247,-59.988220,-32.204689,85.024628,-0.869560,-0.417830,0.521642,13.977703,-0.254770,-29.130072
2,646183914,-59.558411,-32.615475,84.690117,-0.596779,-0.054693,1.218030,15.255270,-0.270522,-29.553864
3,646200581,-59.172115,-32.983772,84.358696,-0.453379,0.140852,1.626092,12.629592,0.617236,-27.259693
4,646217248,-58.902225,-33.263638,84.071884,-0.395579,0.155901,1.792166,7.011636,1.214230,-21.542267
5,646233915,-58.777351,-33.445896,83.853683,-0.394386,-0.023089,1.862329,0.515655,1.194276,-14.744284
6,646250582,-58.809357,-33.537731,83.721519,-0.719682,-0.284154,1.813843,-6.075027,0.294399,-7.866008
7,646267249,-58.926365,-33.532150,83.633080,-0.871714,-0.387821,1.576692,-9.731484,1.450736,-1.726617
8,646283916,-58.978348,-33.387268,83.502136,-0.910562,-0.375476,1.406737,-7.229432,7.589886,4.338646
9,646300583,-58.884666,-33.087772,83.251411,-0.992629,-0.341109,1.081799,-2.406778,17.538750,9.171697
10,646317250,-58.744041,-32.672955,82.912598,-1.153495,-0.300475,0.612566,-2.382487,24.979273,12.725085
11,646333917,-58.706036,-32.181087,82.547447,-1.377358,-0.266951,0.133272,-9.251601,28.612032,15.895773
12,646350584,-58.841095,-31.625586,82.193604,-1.562525,-0.206432,-0.137889,-19.109541,30.174915,19.429619
13,646367251,-59.163815,-31.001038,81.855118,-1.398122,-0.063658,-0.125797,-29.704967,31.650833,23.462976
14,646383918,-59.647572,-30.306128,81.516624,-1.196164,0.152333,-0.030832,-39.170490,33.740543,27.273426
15,646400585,-60.200600,-29.545639,81.137863,-1.144809,0.356234,0.205771,-44.309982,37.389397,29.889875
16,646417252,-60.767448,-28.717762,80.696365,-0.980775,0.555249,0.313939,-46.699955,42.084278,32.105099
17,646433919,-61.367912,-27.828007,80.199303,-0.806045,0.590235,0.196377,-49.948273,46.288239,34.296791
18,646450586,-62.034130,-26.917439,79.677010,-0.826366,0.591321,0.017547,-54.176247,47.879711,35.191387
19,646467253,-62.701111,-25.986094,79.116776,-0.804031,0.641490,0.317832,-54.788258,50.052631,35.831070
20,646483920,-63.301395,-25.057980,78.489540,-0.972483,0.823984,0.765011,-52.030632,53.011261,34.485397
21,646500587,-63.832661,-24.100006,77.789589,-1.028954,0.896377,0.685480,-49.145161,57.256504,34.753456
22,646517254,-64.399132,-23.146370,77.066872,-0.985087,0.986159,0.208857,-51.166439,58.190506,34.422100
23,646533921,-65.117546,-22.134460,76.424988,-0.456036,0.326098,-0.297445,-57.734989,55.513008,40.047943
24,646550588,-65.935478,-21.091707,75.894592,-0.072420,0.244155,-0.267015,-60.602932,50.316895,44.975979
25,646567255,-66.776230,-20.039909,75.431160,-0.180953,0.004488,-0.144751,-60.018124,46.625034,47.659153
26,646583922,-67.508659,-19.001852,74.999100,-0.157297,-0.321028,-0.126908,-52.416264,44.172718,48.193096
27,646600589,-68.081718,-18.010904,74.581993,0.134503,-0.335285,0.013624,-42.134758,41.908634,46.367558
28,646617256,-68.488968,-17.083336,74.182747,0.286876,-0.240646,0.013103,-31.464947,39.275898,43.541519
29,646633923,-68.736122,-16.197390,73.852798,0.138627,-0.105304,0.048330,-20.307671,34.510025,42.867077
30,646650590,-68.810730,-15.337844,73.609352,0.069361,0.029965,-0.008847,-8.255054,29.238342,43.273113
31,646667257,-68.757164,-14.503345,73.448555,0.213051,-0.132516,-0.253244,0.919933,24.275013,43.588516
32,646683924,-68.636353,-13.730970,73.374008,0.433449,-0.360467,-0.575445,6.347572,18.341013,41.886776
33,646700591,-68.508301,-13.069965,73.391518,0.625707,-0.467213,-0.795303,8.118420,11.003654,37.576847
34,646717258,-68.356483,-12.551915,73.503387,0.572825,-0.438876,-0.678921,10.789654,2.804761,31.596441
35,646733925,-68.122787,-12.180240,73.692223,0.387746,-0.278508,-0.536475,16.640671,-4.544232,25.097704
36,646750592,-67.750420,-11.933357,73.915726,0.318673,-0.106429,-0.621890,25.337061,-9.122586,18.937180
37,646767259,-67.199211,-11.776345,74.111053,0.393433,-0.024828,-0.748083,35.673809,-9.514657,13.377719
38,646783926,-66.500832,-11.691624,74.273216,0.376905,0.096919,-0.917921,44.077381,-9.291433,8.701051
39,646800593,-65.740387,-11.676555,74.411003,0.341346,0.493944,-0.772099,47.497963,-9.565705,4.384899
40,646817260,-64.945892,-11.702344,74.502312,0.036784,0.907301,-0.599679,48.976856,-8.048323,1.111927
41,646833927,-64.119003,-11.686543,74.540794,-0.136647,1.180792,-0.556331,50.278267,-4.159809,2.110243
42,646850594,-63.270016,-11.597858,74.526558,-0.349416,1.097779,-0.717518,50.963524,0.584378,4.681077
43,646867261,-62.411034,-11.453497,74.468002,-0.578525,0.884324,-0.987640,51.033237,4.492900,6.419339
44,646883928,-61.579075,-11.274313,74.360008,-0.827934,0.588226,-1.280162,48.837345,8.135900,6.792515
45,646900595,-60.865112,-11.093873,74.199966,-0.911676,0.145135,-1.509153,41.169418,10.945382,5.239502
46,646917262,-60.334743,-10.950077,73.980186,-0.512945,-0.152069,-1.614726,29.494236,12.992888,1.445298
47,646933929,-59.965359,-10.844204,73.671600,-0.125196,-0.141176,-1.429024,18.854771,16.409534,-3.256264
48,646950596,-59.683136,-10.768079,73.223930,0.387620,0.200737,-0.760455,12.089149,22.583466,-9.030747
49,646967263,-59.399990,-10.710295,72.576797,0.851473,0.635178,0.239540,9.945530,32.120266,-16.065760
50,646983930,-59.102623,-10.669380,71.729774,1.058926,1.039082,0.977969,8.606853,41.654720,-23.140406
51,647000597,-58.823940,-10.593245,70.742500,0.941978,1.054744,0.857981,5.985121,49.720573,-25.820465
52,647017264,-58.663929,-10.453562,69.728729,0.884877,0.780629,0.474586,-1.316214,52.955151,-23.581112
53,647033931,-58.734955,-10.274140,68.775856,0.925086,0.688957,0.281316,-14.353622,51.131516,-19.736332
54,647050598,-59.065128,-10.073899,67.886269,1.048108,0.652086,0.222889,-29.043579,48.676102,-16.565102
55,647067265,-59.594925,-9.868843,67.035744,1.086547,0.603904,0.385807,-40.431133,46.992249,-14.771119
56,647083932,-60.159317,-9.649819,66.154305,1.101485,0.425901,0.542545,-42.633736,49.165096,-14.505454
57,647100599,-60.645218,-9.405132,65.209259,1.046131,0.068893,0.431200,-38.342117,53.361626,-14.568749
58,647117266,-61.043621,-9.140813,64.228081,0.775927,-0.333909,-0.128516,-33.195370,55.951004,-14.170318
59,647133933,-61.397003,-8.874166,63.267014,0.523569,-0.385851,-0.522557,-30.034613,55.105804,-13.111867
60,647150600,-61.768456,-8.605823,62.349056,0.572738,-0.211451,-0.435550,-30.461958,53.025688,-11.461955
61,647167267,-62.200790,-8.333154,61.464653,0.636838,-0.285434,-0.557536,-33.559628,51.506565,-9.927349
62,647183934,-62.649345,-8.063335,60.612499,0.714341,-0.557914,-0.466652,-34.009335,49.836662,-8.792570
63,647200601,-63.029087,-7.825815,59.758850,0.993128,-0.518325,-0.178027,-29.668938,49.120834,-10.193400
64,647217268,-63.311123,-7.625392,58.879784,1.066097,-0.353436,-0.128048,-23.815157,49.549313,-12.577166
65,647233935,-63.519497,-7.452875,57.987335,1.023203,-0.211553,-0.319114,-19.330889,49.587738,-14.218476
66,647250602,-63.697224,-7.308553,57.094223,1.091318,0.020392,-0.307017,-17.351067,48.933781,-15.582977
67,647267269,-63.860180,-7.198734,56.165417,1.341775,0.120796,-0.109374,-16.615406,49.989037,-18.234201
68,647283936,-63.992767,-7.120605,55.173973,1.447146,0.104605,-0.024885,-15.171006,52.559879,-21.450012
69,647300603,-64.104027,-7.076679,54.135109,1.447948,0.097440,-0.086168,-14.178123,54.254860,-24.416574
70,647317270,-64.249634,-7.074612,53.089703,1.302588,0.163983,-0.091808,-16.262758,53.568531,-26.720629
71,647333937,-64.466515,-7.109947,52.054600,1.355906,0.202063,-0.092948,-20.480694,52.130222,-28.299580
72,647350604,-64.750389,-7.159511,51.035519,1.606153,0.030461,-0.072167,-24.425295,51.021973,-28.419510
73,647367271,-65.039406,-7.197189,50.011238,1.764704,-0.117406,0.051816,-24.817856,51.742085,-27.633654
74,647383938,-65.304558,-7.232459,48.975430,1.724153,-0.364683,0.017982,-23.509596,52.556454,-27.525942
75,647400605,-65.545464,-7.282252,47.944790,1.635195,-0.518701,-0.075938,-22.061283,52.033752,-27.946394
76,647417272,-65.820152,-7.361718,46.975670,1.284529,-0.549669,-0.100957,-23.685432,48.080185,-27.809273
77,647433939,-66.176163,-7.460124,46.110466,1.154025,-0.706414,-0.093759,-27.848619,42.112843,-26.048948
78,647450606,-66.529999,-7.556441,45.307919,1.494571,-0.928585,0.137411,-27.312588,38.901833,-24.159277
79,647467273,-66.792336,-7.647631,44.479553,1.624448,-1.213868,0.139474,-22.105085,40.556118,-24.257597
80,647483940,-66.907806,-7.747872,43.612263,1.375132,-1.351073,0.249599,-13.686464,42.539776,-25.520231
81,647500607,-67.028763,-7.883811,42.803951,0.650159,-1.263039,0.423892,-13.636863,38.512398,-26.022423
82,647517274,-67.358490,-8.052173,42.188103,0.195641,-1.323099,0.590623,-24.689909,27.303722,-23.215452
83,647533941,-67.941093,-8.240448,41.820244,0.563510,-1.646049,1.622760,-37.866779,13.396707,-18.477053
84,647550608,-68.640236,-8.419177,41.601746,0.965143,-1.945877,2.586957,-43.630051,5.566981,-14.482937
85,647567275,-69.167328,-8.554513,41.337387,0.610778,-1.998560,3.521427,-33.744793,9.196740,-12.945529
86,647583942,-69.390327,-8.617709,40.947945,-0.096148,-1.955054,4.285302,-16.645031,17.747410,-11.446100
87,647600609,-69.444122,-8.653969,40.535362,-1.640071,-1.772700,4.828897,-6.720734,19.624992,-10.367963
88,647617276,-69.604851,-8.644181,40.297886,-3.504142,-1.451456,5.581372,-11.562006,10.878715,-4.108665
89,647633943,-70.009171,-8.422028,40.226448,-5.864506,-2.114246,6.496332,-24.674931,6.048961,11.311463
90,647650610,-70.927788,-7.805827,40.177509,-9.015459,-6.829287,7.407001,-55.314217,12.565662,34.129311
91,647667277,-72.435287,-6.758292,40.206135,-14.584821,-15.897226,10.820253,-90.020134,15.589272,60.447071
92,647683944,-73.901482,-5.347198,40.825817,-16.151054,-27.634638,17.189785,-83.837906,-13.445630,91.956726
93,647700611,-73.953804,-3.098924,42.389759,-13.203828,-38.277065,19.094860,3.980437,-55.184700,155.686646
94,647717278,-71.811409,0.355818,45.637459,-5.084699,-43.139755,15.622536,133.351715,-127.858467,255.511841
95,647733945,-67.642403,4.375418,50.538456,11.591072,-40.134861,12.165134,237.974503,-194.870346,328.031708
96,647750612,-62.084652,8.083169,56.641220,27.695642,-36.338253,6.001051,293.544037,-237.982971,355.969055
97,647767279,-55.735622,10.656619,64.031975,33.557178,-36.641418,-4.093706,308.433289,-297.966064,358.095276
98,647783946,-49.710789,10.439428,72.405624,34.812904,-34.428947,-12.076953,269.186920,-403.843689,288.839417
99,647800613,-44.973900,6.094288,79.942085,32.556721,-27.606768,-18.941895,218.945724,-508.555634,111.809738
100,647817280,-40.181313,-2.070298,83.640701,27.596451,-8.096219,-26.962984,279.484894,-513.878235,-167.991470
101,647833947,-30.204046,-12.442922,79.974899,18.179983,19.756187,-41.955975,569.338135,-385.938477,-537.761841
102,647850614,-11.377118,-20.703859,67.224419,-13.914533,76.792206,-42.218090,905.419312,-204.491074,-863.621033
103,647867281,12.550713,-19.638374,54.469028,-15.074007,125.701767,14.483120,1166.966187,53.728394,-722.165405
104,647883948,32.388641,-13.022667,47.951984,16.581570,68.754234,23.925797,1078.168213,221.191589,-500.372681
105,647900615,38.568760,-7.200043,49.730682,-35.430126,30.133909,29.763832,389.599976,343.121429,-117.126068
106,647917282,30.354933,-9.125234,53.511574,-35.765785,11.526855,14.005703,-460.058441,29.395000,250.776962
107,647933949,20.715683,-12.616168,58.371124,2.054744,14.461716,-15.852461,-522.564270,-67.973915,349.100525
108,647950616,19.467884,-11.961486,60.898315,-9.330879,-0.075433,-18.799629,-42.305771,85.317406,125.764893
109,647967283,21.144903,-11.041012,60.973640,-26.485313,-6.938164,-8.273549,101.785561,50.870213,-14.884794
110,647983950,22.823214,-10.295806,60.181473,-14.299892,0.907613,-1.986334,92.123322,21.497284,-59.895214
111,648000617,24.209513,-9.859789,59.263611,-2.793655,1.648861,-2.223245,73.739212,-0.129092,-59.995201
112,648017284,25.702349,-9.662501,58.496246,2.727809,6.012676,-0.254360,81.957573,-10.892235,-45.970615
113,648033951,26.294752,-9.448999,58.410858,1.886901,7.767206,1.297410,34.887966,6.827724,-10.005270
114,648050618,25.338640,-9.858311,59.071583,-1.847764,1.900040,-0.117485,-50.522785,-7.545652,46.018890
115,648067285,23.666412,-10.818918,60.068134,0.664681,0.863976,-2.180538,-89.403687,-30.500910,77.575951
116,648083952,22.809381,-11.523132,60.935165,2.662524,0.040692,-2.217715,-41.146294,-21.136648,63.712189
117,648100619,22.495913,-11.995084,61.501892,-1.275131,0.264455,-0.541792,-11.678177,-15.758900,41.772186
118,648117286,21.837523,-12.532178,62.067806,-3.056170,0.852213,1.656868,-32.091263,-19.771540,43.029682
119,648133953,20.751703,-13.095449,62.789436,-2.748234,1.113227,1.463719,-55.349739,-18.599443,51.759449
120,648150620,19.691628,-13.509948,63.506832,-2.281341,0.746342,0.492229,-53.507030,-11.297716,48.055328
121,648167287,18.932758,-13.790045,64.022461,-2.783607,0.435064,0.123262,-38.043060,-8.355756,34.085308
122,648183954,18.255882,-14.038681,64.388054,-4.112772,0.690082,0.556418,-35.152618,-9.786251,25.094305
123,648200621,17.431196,-14.330101,64.749100,-4.496797,0.092720,0.326360,-43.995068,-12.642437,25.512968
124,648217288,16.530447,-14.680855,65.091553,-2.876857,0.386920,-0.516892,-48.726501,-16.750530,25.341227
125,648233955,15.772908,-15.005130,65.328796,-1.473468,0.776881,-0.445112,-41.639717,-17.292011,18.802628
126,648250622,15.114642,-15.290097,65.353958,-1.134475,-0.279167,0.537889,-38.938778,-18.521189,6.134019
127,648267289,14.486075,-15.528589,65.348938,-1.570331,0.919201,1.679538,-37.632751,-16.337057,3.553841
128,648283956,13.519523,-15.850665,65.512444,-2.042222,1.035161,1.173596,-55.181347,-18.890947,14.022648
129,648300623,12.177616,-16.309999,65.843666,-1.244743,2.011793,0.089788,-74.854362,-25.046007,24.933649
130,648317290,10.798940,-16.824303,66.279816,-0.585567,0.878079,-0.856087,-75.104874,-27.662100,30.916616
131,648333957,9.940599,-17.180201,66.576294,0.260129,1.349422,0.389459,-46.146915,-20.357416,20.772108
132,648350624,9.399896,-17.361271,66.825394,-1.778313,2.260607,2.374102,-27.853041,-10.723761,16.088268
133,648367291,8.578622,-17.501078,67.258919,-2.289823,4.568682,3.311302,-41.334854,-6.813459,26.020247
134,648383958,7.187946,-17.611902,68.102364,-2.532444,6.043137,3.139465,-68.029358,-2.365071,48.902885
135,648400625,5.309626,-17.774914,69.305550,-1.780369,6.140526,1.817526,-90.614349,-4.618631,69.635391
136,648417292,3.159342,-17.912718,70.729012,-2.370896,6.875332,1.248878,-102.699448,-4.609606,81.900101
137,648433959,0.651736,-17.932024,72.321831,-4.037124,7.689370,0.655222,-120.898514,-0.484888,91.138458
138,648450626,-2.435649,-17.744797,74.157158,-4.896647,8.960638,-0.495365,-151.358536,7.267124,105.218620
139,648467293,-6.306042,-17.316008,76.239853,-5.661242,9.035887,-1.798634,-194.424942,14.258380,121.022469
140,648483960,-11.024904,-16.829948,78.541130,-4.764473,7.212628,-3.657789,-242.424622,6.650243,135.165878
141,648500627,-16.114347,-16.286798,80.911209,-2.218737,5.282117,-5.973923,-264.661560,-2.583449,140.465363
142,648517294,-20.862541,-15.430078,83.066689,0.313594,5.531503,-5.689604,-249.371353,7.027049,134.621811
143,648533961,-24.977341,-13.973553,84.753967,1.202173,6.869671,-5.219190,-221.008606,40.095203,124.580070
144,648550628,-28.854015,-12.007875,85.985153,1.530205,7.315639,-4.702726,-215.794754,70.334045,117.943329
145,648567295,-33.159111,-9.981464,86.909058,2.644905,5.571871,-5.367384,-247.519363,73.945534,109.675819
146,648583962,-37.695286,-8.071265,87.774979,4.193628,2.696777,-4.968174,-263.792358,61.414227,108.680786
147,648600629,-41.801346,-6.085843,88.483917,5.304998,2.904042,-2.490294,-240.882309,62.357189,109.073380
148,648617296,-45.181107,-3.847872,88.539284,5.021664,5.039308,-0.559261,-202.243896,92.889557,95.276901
149,648633963,-48.523430,-1.548188,87.828400,3.927876,2.787129,-2.359508,-202.277176,123.200874,72.005692
150,648650630,-52.191959,0.547496,86.806976,3.007420,-3.138104,-3.178918,-220.370789,125.154900,58.222309
151,648667297,-55.789383,2.384930,85.759758,2.380955,-4.714029,-2.413660,-213.966644,113.344376,52.757690
152,648683964,-58.739792,3.900212,84.282158,2.473623,-2.233943,-2.067598,-171.902939,121.314941,29.113924
153,648700631,-61.314411,5.047700,82.080124,2.372028,-3.122939,-4.343843,-143.909805,146.168991,-5.658096
154,648717298,-64.083534,5.788593,79.493149,1.831187,-8.742663,-5.032818,-151.236145,155.354095,-30.861759
155,648733965,-66.843544,5.975111,76.954086,2.584618,-12.084867,-2.781827,-149.749115,140.135010,-52.242573
156,648750632,-69.194801,5.445764,74.452751,3.463155,-10.986798,-0.429844,-125.916832,124.196434,-84.850899
157,648767299,-71.285004,4.340110,72.098984,3.432599,-10.711747,2.225647,-113.148483,107.579185,-109.520027
158,648783966,-73.349960,2.954232,70.235023,3.582622,-10.023232,5.865637,-116.570419,78.644508,-112.662216
159,648800633,-75.167084,1.665776,68.906853,4.569449,-8.283134,10.449255,-105.609932,53.208717,-95.566483
160,648817300,-76.270760,0.713148,67.794998,4.715297,-5.948212,13.250872,-64.628777,48.064346,-71.414589
161,648833967,-76.688347,0.474818,66.750748,2.697725,-5.368415,12.182583,-24.193312,55.092102,-28.134003
162,648850634,-76.846680,0.768030,65.925629,-0.304607,-4.774818,8.857128,-8.747149,49.732311,6.199450
163,648867301,-76.971100,1.324200,65.352676,-1.701877,-3.335666,6.510506,-6.623981,38.545597,25.112001
164,648883968,-76.931259,1.946702,64.787811,-2.200449,-1.921417,4.234472,3.567770,38.943844,29.123466
165,648900635,-76.643394,2.497468,64.114334,-1.950102,-1.354245,1.684554,19.042858,44.367657,23.322948
166,648917302,-76.321449,2.966467,63.398273,-1.590978,-1.632931,-0.133589,21.561354,45.808052,17.706308
167,648933969,-76.178566,3.372302,62.826805,-0.910661,-2.353413,-0.624796,10.661740,36.546116,15.887929
168,648950636,-76.152290,3.642235,62.418846,0.182606,-2.372112,-0.608221,3.265212,25.095615,10.251299
169,648967303,-76.105408,3.824049,62.103142,1.396661,-2.144340,-0.339720,4.237967,18.466738,6.422310
170,648983970,-76.050911,4.004216,61.852467,1.645780,-1.791512,-0.338994,4.491441,14.663023,7.240494
171,649000637,-75.916336,4.236578,61.602257,1.736772,-1.496899,-0.201744,9.353521,15.402456,10.253797
172,649017304,-75.699928,4.472266,61.330723,1.409695,-1.654801,-0.844997,14.426516,16.712297,10.079712
173,649033971,-75.531494,4.663455,61.141171,0.942667,-1.503091,-1.637485,11.218829,11.328222,8.645148
174,649050638,-75.562859,4.791257,61.124805,0.516792,-1.098671,-1.906648,-1.587936,0.358046,7.527759
175,649067305,-75.714844,4.890207,61.203018,0.844192,-0.724204,-1.224858,-9.303254,-5.563363,7.255563
176,649083972,-75.791862,4.989485,61.230148,0.850566,-0.534953,-0.341969,-4.544884,-2.610178,6.516198
177,649100639,-75.773285,5.064299,61.186428,0.399525,0.056927,-0.338505,1.562688,1.127004,4.053241
178,649117306,-75.804184,5.105576,61.122578,-0.369053,0.706025,-0.670572,-1.294530,1.801911,1.807431
179,649133973,-76.035507,5.132437,61.122318,-0.620605,-0.017899,-0.930087,-13.659851,-2.099794,1.905067
180,649150640,-76.446129,5.135304,61.212376,-0.344951,-0.697389,-0.402462,-24.903671,-7.693470,1.792938
181,649167307,-76.781776,5.068437,61.289139,0.052720,-0.248324,0.385584,-20.332600,-7.899827,-2.496333
182,649183974,-76.857712,4.976370,61.228554,-0.178643,0.662642,0.659127,-4.020529,-0.242450,-5.860443
183,649200641,-76.823959,4.896651,61.096889,-0.321881,-0.043159,0.425578,2.920367,4.065524,-6.103072
184,649217308,-76.825287,4.849677,61.049309,-0.092849,-1.332651,0.396524,0.376347,-0.382846,-3.046592
185,649233975,-76.911407,4.791629,61.178108,0.100543,-1.759937,0.732953,-5.601871,-10.800292,-1.299858
186,649250642,-76.948456,4.720053,61.410553,0.306768,-1.234476,1.431981,-3.162762,-17.022076,-0.700995
187,649267309,-76.804985,4.651854,61.643242,0.050483,-0.994559,1.888087,7.686586,-16.992599,-0.490509
188,649283976,-76.464386,4.579892,61.857498,-0.079066,-1.614413,2.405831,19.620491,-15.978159,-0.905283
189,649300643,-75.994904,4.470979,62.095211,-0.311988,-3.085388,2.943274,27.264072,-17.879831,-2.634071
190,649317310,-75.472160,4.257292,62.507957,-0.315449,-4.980097,4.223923,29.702271,-29.606600,-6.019343
191,649333977,-74.682709,3.825891,63.104103,0.374227,-5.809048,6.708847,45.071377,-43.661190,-15.513892
192,649350644,-73.133499,3.236574,63.762650,1.218258,-7.129934,9.359665,90.744370,-50.219887,-22.748976
193,649367311,-70.539703,2.639830,64.583534,1.593900,-8.311108,11.531878,153.334641,-60.435104,-18.412231
194,649383978,-67.142815,2.053198,65.644371,1.511952,-9.760256,11.583670,201.443512,-74.561035,-9.615831
195,649400645,-63.129269,1.616495,67.041992,2.403482,-11.383860,10.568531,238.367783,-89.629280,11.701146
196,649417312,-58.692364,1.336574,68.772369,3.860399,-12.365829,8.944841,263.782654,-101.452126,35.995228
197,649433979,-54.097763,1.065523,70.789986,6.065510,-13.571663,6.044860,273.385864,-112.423416,53.633595
198,649450646,-49.398945,0.710465,73.009895,8.845041,-14.477242,2.341446,280.122925,-120.424965,65.894188
199,649467313,-44.598778,0.302027,75.173615,11.234898,-14.773907,-1.277644,287.142181,-114.341515,70.764870
200,649483980,-39.516338,-0.175092,77.146744,13.019094,-14.345325,-5.359254,305.125488,-103.288818,68.851112
201,649500647,-34.262074,-0.959041,78.865059,14.304089,-13.257735,-9.106979,316.618500,-102.283432,54.331444
202,649517314,-28.877678,-2.302563,80.263130,13.960379,-10.990249,-12.525826,325.823181,-115.410202,29.332487
203,649533981,-23.440800,-4.330826,81.249451,11.155885,-8.197906,-15.076083,330.026917,-138.162857,-0.538199
204,649550648,-18.209057,-7.149141,81.597282,6.972342,-5.042767,-16.896498,316.386780,-168.360306,-40.633411
205,649567315,-12.932192,-10.503046,80.770737,5.109853,0.403069,-18.674534,309.383270,-183.639832,-101.164467
206,649583982,-6.991820,-13.776127,78.370804,1.921239,4.712961,-18.859829,326.489319,-171.990479,-172.595291
207,649600649,-0.016157,-16.962652,74.373642,-6.434224,9.580332,-15.624202,355.221405,-179.564774,-242.505981
208,649617316,7.537000,-19.673035,68.800346,-15.852964,22.704412,-5.586464,348.195435,-185.864319,-306.116364
209,649633983,15.171109,-20.351902,62.622330,-12.535409,38.266140,5.550141,331.281036,-111.250114,-333.419617
210,649650650,22.754175,-18.059669,57.191017,-0.622858,36.483791,9.050434,347.849976,27.341782,-335.688477
211,649667317,28.609776,-14.445382,53.713890,-0.035265,25.963766,4.272027,293.126190,106.057167,-274.443939
212,649683984,31.183929,-12.156274,52.950504,-3.933293,16.725296,1.093307,144.264938,94.388847,-107.025597
213,649700651,31.228273,-12.480514,54.279732,-7.839099,6.784254,-0.943338,20.025852,21.305132,76.789452
214,649717318,30.359686,-14.183879,55.955753,-1.377682,8.639883,3.543390,-28.591000,-40.104134,136.442505
215,649733985,30.297937,-14.631648,57.460960,-1.001739,8.667373,4.089783,19.084225,18.580240,89.117142
216,649750652,31.223425,-14.151254,58.556496,-5.577876,1.438241,2.155313,72.176117,54.947639,40.011162
217,649767319,31.918888,-13.822706,59.200466,-4.528878,1.491890,0.099471,51.365456,34.038933,21.667164
218,649783986,32.314896,-13.835518,60.033978,-1.770890,3.846963,-0.439414,36.002979,22.780949,41.583824
219,649800653,32.410088,-14.192481,61.297970,-3.301048,2.978793,2.022029,24.361200,18.918047,73.656364
220,649817320,31.812973,-14.910962,62.560394,-5.166895,0.485873,2.273983,-16.514660,0.088552,85.053085
221,649833987,30.837484,-15.727858,63.578030,-3.671067,0.815727,0.083241,-42.126770,-13.622381,75.832077
222,649850654,30.226887,-16.261728,64.555275,-2.111458,1.671673,-1.146257,-20.217203,-1.323788,64.872078
223,649867321,29.947416,-16.691961,65.630989,-4.859448,-0.365507,0.742437,1.795549,6.328889,66.544525
224,649883988,29.388470,-17.323364,66.576859,-7.290837,-2.445140,1.841958,-16.687113,-8.417789,65.965332
225,649900655,28.441809,-18.065235,67.152328,-6.683759,-1.849970,0.986623,-46.072590,-25.424864,50.390636
226,649917322,27.686289,-18.595009,67.344452,-3.646978,0.031883,-0.647287,-41.492184,-25.270994,24.698563
227,649933989,27.616537,-18.833263,67.423973,-1.586779,0.928190,-0.074386,-2.450728,-12.933517,10.731917
228,649950656,27.906290,-19.020092,67.594002,-2.961047,0.317512,0.748601,20.893187,-7.790019,13.855107
229,649967323,27.881147,-19.435791,67.771873,-4.688348,-0.446168,1.380493,2.197659,-19.692921,20.674101
230,649983990,27.452915,-20.038334,67.802643,-3.358085,0.019561,1.289519,-24.891758,-33.575188,18.432589
231,650000657,27.147739,-20.525934,67.750694,-0.852162,0.547949,1.754679,-19.222488,-29.699121,10.931612
232,650017324,27.089703,-20.833296,67.768272,-0.766556,0.096535,1.827942,-2.944453,-18.323187,9.397564
233,650033991,26.792953,-21.219967,67.897491,-3.038835,-1.418905,2.234529,-14.860137,-19.761232,17.078531
234,650050658,25.901657,-21.871698,67.989769,-3.798074,-1.655194,2.206478,-51.287857,-35.115864,22.095114
235,650067325,24.772949,-22.591558,67.924347,-1.913118,-0.545424,1.540307,-69.059273,-42.951733,15.338332
236,650083992,24.082359,-23.055632,67.795670,0.571073,0.737267,1.736711,-44.290142,-30.655375,5.180971
237,650100659,23.889271,-23.181225,67.757858,1.042250,1.613835,2.183484,-12.334103,-10.090504,1.302727
238,650117326,23.689489,-23.212339,68.031509,0.338321,1.932364,2.316844,-5.375534,2.026088,14.704538
239,650133993,23.046610,-23.448275,68.707344,-0.850568,1.907056,2.559995,-22.367928,-0.572371,39.933205
240,650150660,21.771040,-23.935007,69.688087,-1.248367,2.374003,2.928728,-52.742310,-8.793389,61.089180
241,650167327,19.940672,-24.545382,70.908470,-1.666964,3.178929,2.935968,-79.611427,-12.778315,75.574921
242,650183994,17.568823,-25.232250,72.442284,-2.423776,3.611221,2.698593,-103.425659,-14.493247,92.451042
243,650200661,14.571532,-26.007374,74.331749,-3.236999,4.230323,2.130292,-130.658417,-18.685583,111.262856
244,650217328,10.815595,-26.855755,76.673248,-4.348729,5.132433,1.487141,-162.648163,-24.283974,134.094421
245,650233995,6.014137,-27.753036,79.561058,-5.525036,5.577299,0.742369,-208.411072,-32.969810,160.393082
246,650250662,0.044442,-28.624790,82.979630,-5.941078,6.081407,-0.313963,-261.058136,-44.895714,183.554916
247,650267329,-6.858134,-29.233490,86.825996,-4.927127,6.999432,-1.083850,-302.251099,-50.658504,199.768890
248,650283996,-14.316326,-29.414606,90.886375,-3.574478,6.885542,-2.158351,-327.878021,-51.893681,207.159546
249,650300663,-21.640421,-29.038540,94.881912,-1.542892,7.050331,-2.566076,-322.079437,-45.291405,206.367645
250,650317330,-27.839663,-27.811722,98.400146,0.113764,7.524476,-1.201609,-271.161804,-13.008406,199.834152
251,650333997,-32.589233,-25.723412,101.047112,-0.194736,7.211473,-1.194583,-213.138016,34.767780,186.030914
252,650350664,-36.405758,-23.153328,102.865761,-1.298163,5.271620,-2.882851,-183.529800,68.694031,169.675949
253,650367331,-40.042953,-20.545486,104.190697,-1.112077,4.136263,-4.130004,-188.316315,75.143791,155.286880
254,650383998,-43.696434,-18.115025,105.189987,0.051471,3.774770,-4.546133,-199.025970,68.705727,140.001770
255,650400665,-47.053524,-15.788681,105.879196,1.048662,3.879176,-3.354760,-189.025482,67.764275,127.696648
256,650417332,-49.943558,-13.431649,106.208435,1.457638,3.957464,-3.321785,-168.066116,77.250023,119.175316
257,650433999,-52.481213,-11.071164,106.118492,1.651532,3.243010,-3.731921,-153.039276,90.675552,107.708801
258,650450666,-54.844612,-8.835404,105.614639,1.763612,2.237465,-3.178974,-146.657135,101.305832,91.052597
259,650467333,-57.153240,-6.876414,104.673943,1.775606,1.940160,-2.006271,-145.858063,109.895737,66.835175
260,650484000,-59.314060,-5.142290,103.193085,2.248435,0.433010,-2.668600,-138.576477,127.703392,42.612434
261,650500667,-61.210564,-3.620885,101.247101,3.289269,-0.838914,-2.664644,-122.343567,144.143021,22.200050
262,650517334,-62.978279,-2.487972,98.919403,4.471355,-1.454806,-2.380303,-113.148598,152.813919,-4.506911
263,650534001,-64.758774,-1.788297,96.243469,5.195493,-2.202247,-1.493738,-112.471893,160.272324,-32.278183
264,650550668,-66.592651,-1.539174,93.391571,5.767489,-5.354693,-1.257035,-114.661621,159.733749,-56.129036
265,650567335,-68.307709,-1.806539,90.625465,5.255611,-7.002790,-0.337387,-107.424362,144.757492,-77.736900
266,650584002,-69.678764,-2.470594,87.907913,4.379134,-6.641775,0.915470,-88.041946,135.499390,-94.920197
267,650600669,-70.554794,-3.384211,85.073631,3.983333,-6.272485,2.780565,-60.958878,138.722534,-108.640350
268,650617336,-71.163391,-4.490108,82.224144,3.248930,-7.819039,3.154022,-47.983250,137.023682,-117.958405
269,650634003,-71.832008,-5.724861,79.662964,2.591957,-8.086900,3.074020,-53.540451,119.262169,-118.198463
270,650650670,-72.622963,-6.945697,77.508217,2.468153,-6.702988,3.939169,-61.475433,97.611679,-108.377571
271,650667337,-73.273872,-7.925068,75.718872,2.066580,-5.455829,4.924448,-52.708168,82.138611,-86.821487
272,650684004,-73.618355,-8.578078,74.205002,1.313023,-4.906464,4.831834,-33.470890,72.581505,-62.614899
273,650700671,-73.569672,-9.027416,72.854652,0.626774,-4.272327,4.241966,-9.249289,66.760788,-47.940342
274,650717338,-73.172035,-9.389092,71.581345,-0.076818,-3.535943,3.124355,11.855592,63.612770,-41.853394
275,650734005,-72.683807,-9.701964,70.414886,-0.580275,-3.222647,0.884949,17.905449,58.025913,-37.701164
276,650750672,-72.400902,-9.919082,69.466179,-0.390129,-3.146067,-0.607881,7.487230,47.154266,-28.760799
277,650767339,-72.463684,-10.040960,68.771767,-0.063817,-2.471385,-0.698938,-10.779346,34.462654,-18.874968
278,650784006,-72.690041,-10.125051,68.178207,0.736805,-1.327386,0.471174,-19.608761,29.491945,-14.840755
279,650800673,-72.677582,-10.181090,67.462013,1.307886,-0.489223,1.472597,-6.620704,36.923595,-15.330992
280,650817340,-72.384102,-10.195157,66.630142,1.551698,-0.851950,0.924070,8.988554,44.148846,-15.085539
281,650834007,-72.084053,-10.156503,65.914612,1.423487,-1.295935,-0.198332,10.629057,38.492420,-10.221678
282,650850674,-72.033478,-10.070545,65.444092,1.195444,-1.290864,-0.793368,-1.708243,25.574284,-3.196191
283,650867341,-72.213074,-9.945285,65.178139,1.099418,-1.205144,-0.605589,-13.329994,14.805422,2.782523
284,650884008,-72.459053,-9.806122,65.010574,0.962706,-1.401104,-0.500134,-16.258718,9.514458,5.400451
285,650900675,-72.694633,-9.700260,64.901100,0.818439,-1.428203,-0.540658,-15.019544,5.617670,4.568240
286,650917342,-72.853645,-9.635399,64.825310,0.633617,-1.529943,-0.392625,-10.072711,2.970390,2.831415
287,650934009,-72.933609,-9.592793,64.836655,0.455932,-1.928124,-0.390140,-4.448274,-2.353321,3.076380
288,650950676,-72.976303,-9.590792,64.980072,0.437604,-2.102509,-0.206820,-0.889734,-10.542602,3.030464
289,650967343,-72.962761,-9.618949,65.218018,0.187660,-1.745592,0.126646,3.438412,-16.421135,2.929026
290,650984010,-72.897873,-9.671549,65.483452,-0.106950,-1.472649,0.333639,6.807217,-18.404669,2.005676
291,651000677,-72.851791,-9.718405,65.784332,-0.255016,-1.608250,0.587551,6.052488,-20.306370,2.961402
292,651017344,-72.911568,-9.733711,66.198921,-0.398818,-2.352349,0.667439,0.864975,-26.177063,6.740568
293,651034011,-73.023315,-9.697869,66.738411,-0.065680,-2.469835,1.322113,-0.990639,-32.354923,11.792665
294,651050678,-73.015633,-9.618428,67.262398,0.185404,-1.742909,2.415287,5.988843,-30.733137,13.991269
295,651067345,-72.791855,-9.473475,67.651764,0.297287,-1.829214,3.208766,17.558268,-21.948444,15.460002
296,651084012,-72.299667,-9.243099,67.955338,0.326308,-2.851988,3.907003,32.753357,-15.486180,18.943447
297,651100679,-71.614563,-8.943267,68.328979,0.209020,-3.865386,4.226491,44.912846,-17.965597,24.317003
298,651117346,-70.768288,-8.551234,68.876060,0.347414,-4.517405,4.054630,56.036907,-25.622389,33.064411
299,651134013,-69.645210,-8.049110,69.568146,0.672167,-4.818398,4.206021,73.651970,-30.959257,42.581276
300,651150680,-68.124100,-7.435230,70.311493,0.678586,-4.975570,4.485474,97.551949,-30.466179,50.581161
301,651167347,-66.137329,-6.744579,71.042793,0.784108,-5.230000,4.695380,124.904938,-26.531025,55.384373
302,651184014,-63.761223,-6.008006,71.738243,0.867555,-5.482747,4.829631,147.489136,-21.380039,57.856506
303,651200681,-61.180260,-5.226354,72.492813,0.901266,-6.003518,4.158402,159.582870,-20.813557,62.654160
304,651217348,-58.644348,-4.415522,73.438431,1.222822,-6.840953,3.496848,157.219910,-27.082842,70.655800
305,651234015,-56.209881,-3.636453,74.568825,1.799954,-7.774125,3.520849,151.132629,-34.420563,76.008369
306,651250682,-53.680630,-2.873670,75.656784,3.381573,-8.319837,4.473396,155.772018,-29.659304,75.065056
307,651267349,-50.951073,-2.094442,76.564713,5.603167,-9.508514,4.520382,166.458481,-17.112988,70.414131
308,651284016,-48.109974,-1.368343,77.362038,7.575808,-11.370815,3.357751,172.258011,-10.757236,64.295570
309,651300683,-45.284935,-0.850812,78.134865,9.946769,-13.161153,1.202605,170.777603,-15.143225,54.481468
310,651317350,-42.447201,-0.690607,78.926460,12.498230,-14.517375,-1.285459,171.318390,-28.732977,40.952679
311,651334017,-39.588940,-1.101642,79.777618,14.484108,-15.458585,-6.796411,172.754440,-54.937256,22.362331
312,651350684,-36.605759,-2.462601,80.769066,15.129381,-16.354551,-12.560086,181.344315,-103.834862,-3.605760
313,651367351,-33.581284,-5.428157,81.832169,12.848336,-16.020830,-18.902655,186.379120,-185.140991,-50.280579
314,651384018,-30.531258,-10.652676,82.525352,6.114485,-13.036341,-23.623623,189.299057,-290.582672,-131.569931
315,651400685,-26.463953,-18.481598,81.796806,-5.167664,-0.227934,-18.959805,233.272659,-395.743073,-261.508820
316,651417352,-19.655201,-26.822569,76.929283,-13.621546,31.685907,-5.638392,295.629852,-357.666687,-444.351776
317,651434019,-7.175818,-29.836660,67.358780,-11.422292,62.723213,15.440865,475.308838,-61.153439,-533.907715
318,651450686,5.877948,-25.798336,58.872993,0.630543,56.993504,20.037138,544.680298,244.511917,-447.951141
319,651467353,12.339167,-21.294628,55.064350,0.248089,24.169025,0.384697,296.512482,231.219467,-249.678696
320,651484020,12.192844,-20.869562,56.835732,-3.745745,5.219455,-10.536647,29.896425,43.704796,91.533234
321,651500687,10.458101,-22.811571,60.539238,2.675717,7.387896,-4.495872,-20.936769,-75.973763,225.172119
322,651517354,10.971644,-23.237408,63.010345,-8.055800,8.267219,3.381786,89.246368,-1.985546,138.858261
323,651534021,12.641156,-22.532976,63.570839,-22.149296,0.739843,3.563079,113.663200,45.475647,21.717150
324,651550688,13.354997,-21.817171,63.177856,-14.574100,1.131132,2.924456,34.258297,34.684395,-30.862122
325,651567355,13.542617,-21.299887,62.855671,-3.121724,2.575685,0.658456,4.421174,23.749084,-24.605803
326,651584022,13.642335,-21.063963,63.044880,1.073601,3.781188,-0.484174,10.337254,13.999950,7.066751
327,651600689,13.514772,-21.101889,63.732243,-3.040043,2.491790,0.831173,7.436975,4.592682,38.035782
328,651617356,12.629832,-21.402126,64.542366,-5.798302,2.449183,0.726712,-35.231880,-9.521030,48.304016
329,651634023,11.465583,-21.667446,65.251213,-2.694486,1.911947,-0.835620,-54.019733,-9.523039,42.130650
330,651650690,10.880862,-21.771456,65.829216,0.689577,1.733407,-1.867236,-22.035971,-2.084578,32.940006
331,651667357,10.870785,-21.822214,66.370735,-0.923203,0.831801,-1.735713,11.678135,0.503682,30.322235
332,651684024,10.681939,-22.040812,66.952095,-4.102266,0.355447,-0.399516,1.914654,-9.029426,34.361320
333,651700691,9.884521,-22.472904,67.610207,-5.142796,0.478872,-0.101997,-32.685616,-21.179623,40.717190
334,651717358,8.796740,-22.994499,68.286385,-3.390443,0.657212,-0.534599,-49.400845,-27.000471,42.149048
335,651734025,8.076730,-23.409546,68.883736,-1.509157,0.740797,-0.310382,-28.904264,-21.991806,36.395977
336,651750692,7.939396,-23.642992,69.365547,-2.037461,0.492291,0.169006,3.470584,-12.366084,28.361578
337,651767359,7.929328,-23.804815,69.814621,-3.543362,0.802430,0.923175,10.402214,-8.398994,25.936954
338,651784026,7.651390,-23.955601,70.449585,-3.069822,1.826069,1.238711,-1.099468,-6.426896,35.911480
339,651800693,7.086789,-24.093454,71.397850,-2.298311,2.385540,1.622394,-10.568125,-3.715057,52.774117
340,651817360,6.216538,-24.200670,72.642204,-3.318138,2.130809,2.009842,-21.529234,-0.663304,68.597282
341,651834027,4.979881,-24.366995,74.012085,-4.111373,1.789414,1.819539,-40.259647,-4.778109,75.726631
342,651850694,3.661485,-24.402922,75.422218,-3.334274,3.252051,1.776111,-44.041725,1.510935,77.208305
343,651867361,2.320725,-24.254162,76.949333,-2.762795,4.423011,1.447968,-42.571682,11.141468,83.125107
344,651884028,0.771777,-24.024591,78.726219,-2.561963,5.141617,1.595840,-49.209991,14.286801,97.104485
345,651900695,-1.031317,-23.697666,80.735626,-2.855356,5.803575,2.397740,-59.281116,17.284075,110.535828
346,651917362,-3.078919,-23.216169,83.025574,-3.673259,6.253341,2.507915,-68.018250,22.298143,127.241455
347,651934029,-5.511283,-22.618807,85.496468,-4.069314,6.517163,1.784050,-88.053116,23.492073,139.113480
348,651950696,-8.457661,-21.907566,88.011292,-4.632616,6.004296,0.496887,-119.443413,23.387423,144.080963
349,651967363,-11.994019,-21.098133,90.540337,-4.790918,5.046378,-0.687072,-156.370590,20.770695,147.883591
350,651984030,-16.086739,-20.200596,92.995155,-3.788049,4.807868,-1.470257,-193.416702,16.868713,147.145111
351,652000697,-20.325506,-19.128605,95.220062,-2.119824,5.273226,-1.775978,-209.185623,19.904352,139.931381
352,652017364,-24.209360,-17.767759,97.078743,-0.772111,5.601588,-1.862054,-197.507339,33.570141,129.302231
353,652034031,-27.509783,-16.151539,98.529297,-0.661766,4.989306,-1.697165,-172.383331,49.059887,117.712685
354,652050698,-30.309290,-14.360237,99.539635,-1.240458,4.764310,-1.765892,-151.749435,63.926945,103.693123
355,652067365,-32.987404,-12.436486,100.156693,-1.286142,4.050832,-3.069191,-151.823807,77.483437,91.802826
356,652084032,-35.774395,-10.479746,100.417763,-0.087392,2.689405,-4.312603,-163.815109,86.349770,79.583611
357,652100699,-38.761497,-8.652079,100.389732,1.111183,1.488259,-4.634797,-179.203751,86.387459,65.740395
358,652117366,-41.776150,-7.048237,99.968803,2.080475,1.469010,-3.863711,-184.025787,87.689537,43.803627
359,652134033,-44.502537,-5.573005,98.991302,2.903277,2.622386,-2.908867,-169.721252,102.515259,18.708210
360,652150700,-47.034508,-4.202015,97.481758,3.685988,2.164684,-3.701204,-159.323700,120.089073,-3.258994
361,652167367,-49.745552,-3.053248,95.709526,4.439538,0.437538,-4.409424,-169.076843,123.141113,-18.159777
362,652184034,-52.802853,-2.270158,93.892975,4.994817,-0.941583,-3.981893,-188.189026,112.325882,-30.654125
363,652200701,-56.024387,-1.846105,92.019157,5.584877,-0.814812,-3.228091,-197.022598,104.133240,-43.870827
364,652217368,-59.219852,-1.637241,89.976631,5.950669,-0.152432,-2.304307,-195.143845,108.075829,-54.173035
365,652234035,-62.323490,-1.572531,87.690598,6.340690,-0.251887,-1.600373,-189.747208,119.424355,-62.703602
366,652250702,-65.187843,-1.566542,85.131905,7.245695,-1.559004,-0.399373,-175.752502,135.644165,-66.667793
367,652267369,-67.748825,-1.697277,82.561691,6.806281,-3.084933,1.730841,-157.738556,135.997940,-67.855431
368,652284036,-70.022293,-2.193428,80.031654,5.605260,-3.979715,2.804586,-141.254486,128.570694,-81.542076
369,652300703,-71.730057,-2.959977,77.383339,5.321002,-3.841652,3.786768,-109.313278,132.642792,-94.581070
370,652317370,-72.845734,-3.910351,74.504417,4.300851,-5.348295,3.471824,-77.007248,144.610168,-105.905212
371,652334037,-73.754326,-4.984756,71.712326,2.652185,-7.241472,2.368433,-67.236923,139.140350,-108.885765
372,652350704,-74.810547,-6.113049,69.267014,1.309097,-8.160671,1.908962,-77.306961,119.895653,-103.904182
373,652367371,-75.949066,-7.276051,67.199844,0.692834,-7.741060,3.132309,-82.531784,99.222137,-97.829910
374,652384038,-76.898720,-8.440960,65.324493,0.303537,-7.117988,3.870135,-72.137375,89.558777,-93.357697
375,652400705,-77.350906,-9.468356,63.476917,-0.271588,-6.517573,3.810363,-44.174004,90.607208,-83.777390
376,652417372,-77.271751,-10.290539,61.587086,-1.006243,-5.949097,2.940174,-14.506673,95.722679,-71.979370
377,652434039,-76.849007,-10.912487,59.713051,-1.679766,-5.247179,1.926904,4.862084,96.927765,-60.466431
378,652450706,-76.434746,-11.366023,58.034138,-2.385113,-4.739349,0.893683,5.564594,87.436005,-48.690544
379,652467373,-76.325470,-11.680332,56.721134,-2.651118,-3.454976,1.270233,-9.019973,68.128220,-35.914104
380,652484040,-76.462914,-11.867726,55.700726,-2.058515,-2.607421,1.924563,-20.592964,53.148537,-24.458664
381,652500707,-76.506981,-11.903439,54.778957,-1.368993,-2.394386,2.235500,-13.898297,49.651741,-14.179615
382,652517374,-76.329704,-11.865279,53.863934,-0.955747,-2.376331,1.609501,-0.540305,50.285885,-9.855704
383,652534041,-75.995171,-11.820922,52.985134,-0.635087,-2.281021,0.897972,9.375170,48.266182,-9.238095
384,652550708,-75.623337,-11.798633,52.216183,-0.504899,-2.183635,0.378003,12.989143,41.628159,-9.267585
385,652567375,-75.343094,-11.815217,51.645096,-0.243206,-1.904205,0.256752,9.925515,29.735317,-8.877292
386,652584042,-75.117531,-11.862390,51.259857,0.119375,-1.705815,0.315071,8.915829,18.667189,-8.021924
387,652600709,-74.806236,-11.957747,50.973427,0.519240,-1.387190,0.571974,15.258453,12.266614,-9.415154
388,652617376,-74.296967,-12.099641,50.662682,0.735516,-1.147766,0.532597,26.800180,12.820808,-12.596280
389,652634043,-73.601265,-12.270356,50.313435,0.475440,-1.150095,0.137247,37.454651,14.366610,-15.045406
390,652650710,-72.890366,-12.479919,50.016735,0.015933,-1.113314,-0.594491,38.977829,10.539389,-16.597717
391,652667377,-72.335663,-12.721277,49.860229,-0.118454,-0.992670,-0.802722,31.376135,1.934081,-16.110304
392,652684044,-71.939522,-12.946790,49.833752,-0.023518,-0.764064,-0.528946,23.557991,-5.161178,-12.910999
393,652700711,-71.634178,-13.142830,49.865505,0.137344,-0.715516,-0.078674,18.895718,-7.924339,-10.155170
394,652717378,-71.284767,-13.298692,49.865005,0.245737,-0.931713,0.073408,21.105795,-5.429544,-8.443114
395,652734045,-70.799583,-13.404730,49.797329,0.054971,-1.323476,-0.147209,28.324034,-0.816023,-6.872112
396,652750712,-70.204735,-13.469225,49.697910,-0.200775,-1.482746,-0.214674,34.458084,1.693410,-5.162697
397,652767379,-69.548935,-13.507908,49.610977,-0.224834,-1.764513,-0.200101,38.288784,1.479019,-3.511314
398,652784046,-68.889832,-13.508685,49.594334,-0.088246,-2.089426,0.036704,39.473274,-1.596730,0.014567
399,652800713,-68.240982,-13.481491,49.662312,-0.078439,-2.153181,0.148560,40.047958,-5.586354,3.361731
400,652817380,-67.626289,-13.455614,49.792522,0.026672,-2.072065,0.262268,38.872044,-8.946670,4.674543
401,652834047,-67.102493,-13.428224,50.013863,0.026999,-2.034396,0.191594,34.689407,-13.781034,6.859276
402,652850714,-66.708755,-13.365700,50.395397,0.052475,-2.123258,0.349276,29.108398,-21.505816,12.547118
403,652867381,-66.396957,-13.258809,50.927597,0.216762,-2.297379,1.240474,26.249016,-28.452116,18.598558
404,652884048,-65.958878,-13.107563,51.503494,0.216502,-2.465762,2.423663,34.360523,-29.608984,22.230392
405,652900715,-65.257446,-12.891623,52.024097,0.088682,-2.967259,3.223374,49.315872,-24.868523,24.697550
406,652917382,-64.433502,-12.640933,52.582214,-0.389642,-3.922482,3.011531,57.046345,-25.672413,27.811436
407,652934049,-63.708931,-12.385256,53.370739,-0.500785,-4.535404,3.183893,53.943375,-37.344296,34.289116
408,652950716,-63.019863,-12.098853,54.386948,0.592009,-5.178632,4.423829,54.498981,-48.081036,42.347141
409,652967383,-62.078499,-11.772895,55.523327,2.185061,-5.879861,6.650864,70.821106,-52.714645,48.358780
410,652984050,-60.630920,-11.435556,56.521091,2.834980,-6.737187,8.477615,99.157349,-44.304985,46.103912
411,653000717,-58.633945,-10.922154,57.312847,1.976837,-8.149720,8.051235,129.314560,-27.191538,50.340420
412,653017384,-56.424519,-10.175986,58.192749,0.316301,-10.529007,6.451406,142.538162,-22.328890,65.805183
413,653034051,-54.319412,-9.288194,59.503632,0.053897,-12.582308,5.918412,139.923004,-36.134056,88.010117
414,653050718,-52.322102,-8.233536,61.357620,2.676268,-14.391982,4.754890,137.111664,-53.037205,116.499466
415,653067385,-49.811752,-6.790174,63.634293,7.812979,-16.460348,3.234900,168.821564,-53.651649,152.499786
416,653084052,-46.305317,-4.845928,66.320915,12.803100,-16.573895,0.046632,227.084641,-44.127499,193.951675
417,653100719,-41.780323,-2.430015,69.437500,15.121565,-15.195008,-3.549194,283.736450,-28.448561,234.900238
418,653117386,-36.759598,0.004189,72.968216,13.471305,-15.401493,-6.887517,306.126709,-24.011658,256.399048
419,653134053,-32.281116,1.604128,76.987541,9.921594,-17.334824,-7.830760,265.773682,-60.689590,253.038437
420,653150720,-28.982140,1.452011,81.186440,9.564111,-18.105530,-7.852210,191.711746,-139.389252,211.978394
421,653167387,-26.906324,-0.720969,84.690178,10.629613,-17.420879,-10.621356,123.724899,-216.989914,124.519539
422,653184054,-25.151724,-4.651532,86.410431,11.357777,-13.218026,-14.259352,110.639954,-260.586212,-10.982606
423,653200721,-22.304636,-9.852296,85.151192,5.288927,-5.537275,-18.062595,161.780487,-259.007629,-194.394226
424,653217388,-16.885958,-16.085056,80.307480,-2.902471,7.470513,-24.191868,260.057220,-260.638428,-392.531891
425,653234055,-7.119974,-21.116020,70.985641,-15.750205,38.747543,-15.621678,406.749451,-187.850220,-581.670166
426,653250722,5.661203,-20.200500,60.277737,-21.314108,88.775070,22.104563,539.038940,59.293091,-600.886963
427,653267389,18.755064,-16.065321,51.844467,15.981280,53.927517,28.853802,627.124512,137.849564,-523.011292
428,653284056,26.038580,-11.430947,48.247864,10.714167,37.102089,6.005753,385.926636,174.832642,-299.870483
429,653300723,25.668974,-9.876387,49.911896,-11.283941,12.104027,-1.161520,-3.166005,124.538872,47.587708
430,653317390,20.669443,-12.224770,54.011505,-8.044451,0.568552,-5.031004,-252.165939,-36.645893,277.405151
431,653334057,16.303200,-14.513008,57.660881,-4.527334,10.813907,4.665284,-210.749893,-64.784477,245.615326
432,653350724,15.771845,-14.324308,59.529736,-11.414961,4.515185,-5.089292,-3.509086,38.757191,101.259239
433,653367391,17.786118,-13.398430,59.682728,-10.935321,-3.140630,-4.804720,123.443443,53.638130,-7.477518
434,653384058,19.663616,-12.986802,59.571777,-11.225332,0.949278,-3.502872,111.470291,19.150486,-14.030807
435,653400725,20.346331,-13.089763,59.849117,-7.583323,3.019817,-0.064225,45.000118,-2.430012,17.395195
436,653417392,20.181396,-13.612260,60.496277,-4.975290,3.413576,2.145701,-0.687733,-18.491737,46.349873
437,653434059,19.638662,-14.285155,61.291611,-6.391035,1.907543,0.953604,-20.844505,-24.345020,57.347691
438,653450726,19.028109,-14.964979,61.847553,-5.553402,0.503762,-0.195394,-28.023520,-29.954956,44.026493
439,653467393,18.796141,-15.309352,62.177044,-2.528216,2.192008,-0.941078,-8.595920,-15.515905,24.828695
440,653484060,18.868050,-15.526390,62.564491,-3.373829,1.028774,0.323297,10.641433,-7.238604,25.495611
441,653500727,18.504183,-16.071774,63.029205,-5.065334,0.597254,1.542899,-14.110383,-24.547646,35.985191
442,653517394,17.662485,-16.815247,63.502880,-4.337416,0.691314,1.319791,-42.346481,-36.088043,39.857391
443,653534061,16.829788,-17.416986,63.862522,-3.175625,0.978976,1.010293,-43.523201,-30.510292,30.510391
444,653550728,16.246010,-17.791302,64.179459,-3.567717,1.035548,0.429558,-29.203106,-18.511236,23.887188
445,653567395,15.752973,-18.136997,64.488899,-3.965808,1.088813,0.783368,-23.798656,-17.206861,22.824747
446,653584062,15.215076,-18.534136,64.848076,-4.168247,1.643201,1.563247,-25.456860,-19.636467,26.217491
447,653600729,14.693856,-18.884066,65.278404,-2.732267,2.610880,1.856897,-22.973442,-16.100004,29.197283
448,653617396,14.327579,-19.091864,65.884033,-1.792147,3.476879,2.096125,-10.147805,-5.574723,36.545628
449,653634063,13.973307,-19.196527,66.827019,-1.787391,4.357993,2.618425,-2.702564,4.881017,53.517746
450,653650730,13.297368,-19.263992,68.172890,-2.510617,4.796157,2.854330,-13.962393,11.969650,75.206680
451,653667397,12.012427,-19.399172,69.876511,-3.324791,5.040568,2.077002,-43.262630,11.177067,96.043945
452,653684064,9.968328,-19.703184,71.823120,-4.022866,5.129480,0.899717,-83.561775,1.069154,111.687325
453,653700731,7.163438,-20.232086,73.947029,-3.944610,4.870126,0.672392,-124.773804,-15.511352,123.353806
454,653717398,3.828446,-20.937866,76.243896,-3.077537,4.630135,0.494885,-151.634415,-31.730959,132.698166
455,653734065,0.321761,-21.601212,78.697754,-1.864848,5.748887,0.422525,-156.967819,-36.709419,138.810760
456,653750732,-3.189696,-21.908049,81.322090,-1.365613,6.146911,-0.062099,-152.282440,-23.932240,146.027771
457,653767399,-6.944864,-21.965155,84.022491,-2.016064,5.579333,-1.188846,-164.705383,-18.521313,149.731705
458,653784066,-11.350632,-21.952690,86.784767,-2.868846,4.714579,-2.836016,-202.260742,-25.504160,152.252655
459,653800733,-16.496574,-21.951118,89.643997,-2.182323,4.117540,-4.049923,-244.479050,-39.985455,154.909424
460,653817400,-21.910324,-21.796087,92.515411,0.175857,5.264361,-4.336804,-260.457703,-45.588657,154.563049
461,653834067,-26.721289,-21.154057,95.040787,2.481841,6.634801,-2.282959,-232.974258,-24.731142,144.923462
462,653850734,-30.630339,-20.027569,96.980270,2.181085,5.340136,-0.624028,-193.364777,5.259089,128.621445
463,653867401,-33.825539,-18.592182,98.398994,0.619313,4.026385,-0.843037,-163.275681,28.247066,114.533302
464,653884068,-36.592377,-16.882164,99.412643,0.441675,3.282167,-2.763772,-147.167679,48.656391,107.168785
465,653900735,-39.252510,-15.016031,100.114998,1.215199,2.343426,-4.155694,-147.689529,61.630070,101.493904
466,653917402,-41.978802,-13.240862,100.530457,1.814028,1.221217,-4.206527,-157.136948,63.292564,88.432076
467,653934069,-44.767353,-11.779013,100.608070,1.569420,0.518434,-2.544131,-165.938080,58.774918,64.307999
468,653950736,-47.300522,-10.516015,100.154305,1.567983,1.183702,-1.446203,-156.884903,69.930847,36.782726
469,653967403,-49.506519,-9.327160,99.078987,2.180871,0.497056,-1.996495,-143.109589,92.939850,11.948694
470,653984070,-51.580933,-8.301608,97.543907,3.415029,-1.346489,-3.389625,-138.218628,107.394211,-9.526266
471,654000737,-53.694096,-7.621123,95.742325,4.035553,-2.812071,-3.238198,-141.411331,107.831596,-31.716124
472,654017404,-55.707428,-7.353789,93.687386,4.553451,-2.910023,-0.943460,-136.528381,106.958977,-56.763393
473,654034071,-57.346249,-7.489605,91.286926,4.529451,-2.478933,2.264811,-116.606438,112.513664,-84.800529
474,654050738,-58.615040,-7.911153,88.601608,3.967554,-2.981247,3.135842,-97.403099,119.802315,-105.348396
475,654067405,-59.738556,-8.510284,85.876076,3.501508,-4.968557,2.018830,-90.470787,118.376595,-113.073807
476,654084072,-60.891697,-9.222317,83.401711,3.625315,-6.199279,1.917500,-91.792107,104.043732,-109.062469
477,654100739,-62.032135,-10.014640,81.221809,3.624265,-5.907431,2.855805,-90.013855,88.300743,-102.713417
478,654117406,-63.041008,-10.755575,79.163490,3.153160,-5.207219,3.826444,-82.534508,84.970734,-94.847733
479,654134073,-63.766171,-11.285111,77.070663,2.360950,-5.027987,4.067062,-67.258949,93.649124,-83.007172
480,654150740,-64.338135,-11.582236,74.952316,1.339025,-5.538671,2.910466,-59.265354,101.851418,-69.988464
481,654167407,-64.960045,-11.731393,72.965500,0.717332,-6.410908,1.580416,-61.159271,99.286842,-57.559856
482,654184074,-65.671829,-11.828697,71.194710,0.393394,-6.288060,1.253541,-64.161324,89.651810,-48.258671
483,654200741,-66.308388,-11.852702,69.509178,0.453198,-5.090238,1.712634,-58.711685,87.391228,-41.142151
484,654217408,-66.715714,-11.768059,67.773766,0.254674,-4.124539,2.138729,-45.522160,93.045044,-35.543972
485,654234075,-66.937340,-11.582242,66.002861,-0.071034,-3.443633,2.091109,-34.573811,97.579880,-30.302797
486,654250742,-67.072495,-11.299820,64.293427,-0.320648,-3.327758,1.416777,-28.232647,96.676430,-23.297546
487,654267409,-67.173668,-10.950349,62.746864,-0.551104,-3.016278,0.882415,-23.756374,89.548012,-15.720869
488,654284076,-67.196579,-10.508571,61.337818,-0.356806,-2.342560,0.846775,-16.896667,84.344109,-7.437610
489,654300743,-67.196434,-9.986821,60.039345,-0.169896,-1.938323,0.872612,-13.636723,80.299049,-0.530951
490,654317410,-67.237251,-9.451127,58.858322,-0.278798,-2.000496,0.667876,-14.195743,74.329224,2.900575
491,654334077,-67.350677,-8.967786,57.835522,-0.402667,-2.195643,0.413991,-16.412197,64.563126,3.671056
492,654350744,-67.487488,-8.562747,56.955257,-0.228559,-2.023839,0.412773,-16.042648,55.006947,2.686592
493,654367411,-67.531853,-8.196995,56.168957,0.155717,-1.615660,0.723405,-9.320863,48.995213,2.702388
494,654384078,-67.515045,-7.869239,55.444698,0.524006,-1.346402,0.868392,-4.845983,44.748375,1.995545
495,654400745,-67.488335,-7.588382,54.811775,0.112635,-1.294538,0.703316,-3.283309,38.681820,1.438058
496,654417412,-67.497803,-7.342764,54.328724,-0.526139,-1.131368,0.295465,-4.111902,29.654373,2.877769
497,654434079,-67.557571,-7.147715,54.022594,-0.899930,-0.969331,0.034271,-5.679868,18.772697,4.107457
498,654450746,-67.637413,-7.015001,53.860264,-0.880903,-0.915355,-0.226365,-5.771005,9.429595,3.932044
499,654467413,-67.636223,-6.942974,53.768822,-0.483819,-0.636506,0.149339,-0.374675,4.139122,2.171938
500,654484080,-67.508011,-6.904253,53.649841,-0.030430,-0.351534,0.379091,7.049584,4.895683,-0.310900
501,654500747,-67.269783,-6.868834,53.484882,-0.057768,-0.351141,0.316798,13.327046,7.344223,-1.573671
502,654517414,-66.998589,-6.840914,53.332359,-0.421075,-0.382965,0.114322,15.398810,6.479807,-1.746903
503,654534081,-66.787231,-6.832728,53.248566,-0.629937,-0.320924,0.084420,12.301792,2.235586,-1.268021
504,654550748,-66.600166,-6.830106,53.212189,-0.395472,-0.470800,0.041312,11.182746,-0.495478,-0.475974
505,654567415,-66.333481,-6.818107,53.165775,0.036761,-0.558297,0.164526,15.887782,0.275138,-0.209320
506,654584082,-65.962212,-6.802583,53.085644,0.210246,-0.502082,0.254682,21.924524,2.195723,-0.846463
507,654600749,-65.528419,-6.788164,52.990730,0.106588,-0.551625,0.159391,25.574627,2.958792,-1.301538
508,654617416,-65.109131,-6.771291,52.931492,-0.180925,-0.623188,-0.145744,24.958416,1.081505,-0.324065
509,654634083,-64.816460,-6.758560,52.969967,-0.329811,-0.702870,-0.471338,18.053230,-4.302196,1.890405
510,654650750,-64.679512,-6.763198,53.123238,-0.231003,-0.774486,-0.413647,9.521008,-10.930394,3.871893
511,654667417,-64.595558,-6.763567,53.364182,0.153727,-0.695160,0.133344,6.962173,-15.534208,6.353730
512,654684084,-64.415390,-6.726543,53.637802,0.473783,-0.453086,0.840363,12.961709,-16.313042,9.244607
513,654700751,-64.090538,-6.625531,53.876495,0.621369,-0.253111,0.984418,21.379379,-12.730634,11.859012
514,654717418,-63.674267,-6.442086,54.087448,0.419698,-0.450302,0.544326,26.643660,-8.996057,15.638613
515,654734085,-63.236660,-6.182629,54.329636,0.086491,-0.712361,0.187607,28.079847,-8.518015,20.602173
516,654750752,-62.822266,-5.883297,54.624809,-0.047561,-0.688981,0.077613,26.952038,-10.105336,24.215063
517,654767419,-62.389332,-5.555447,54.917179,-0.089725,-0.526708,0.142242,27.952179,-8.998418,25.714539
518,654784086,-61.909531,-5.191469,55.123615,-0.070327,-0.467513,0.223303,30.176388,-3.253714,25.286217
519,654800753,-61.360775,-4.794063,55.233646,-0.622365,-0.576413,0.500857,33.729076,2.987080,24.323883
520,654817420,-60.926189,-4.381599,55.288887,-0.948823,-0.720235,0.767280,26.566652,6.492458,23.485178
521,654834087,-60.909504,-3.991400,55.366982,-1.199992,-1.306695,1.470029,1.569594,4.738070,22.945816
522,654850754,-61.096233,-3.578088,55.313114,0.565344,-2.223337,2.773403,-11.192917,12.285270,20.336065
523,654867421,-61.106419,-2.978112,55.032898,1.827238,-3.362288,4.657113,-1.344046,29.530985,23.612511
524,654884088,-61.036400,-2.086023,54.668579,2.481554,-5.032573,4.667616,3.469234,42.439835,36.486404
525,654900755,-61.019844,-0.869740,54.481018,2.303284,-8.141143,3.814937,0.946849,42.622570,58.592232
526,654917422,-61.120106,0.603771,54.865517,1.719263,-10.645296,3.538187,-5.707740,19.997786,88.722137
527,654934089,-61.226883,2.241878,56.051704,1.522555,-11.255765,4.123764,-7.910092,-17.535093,120.578293
528,654950756,-61.091965,4.014273,58.004227,2.470371,-10.914901,5.119261,1.972860,-53.779148,149.722580
529,654967423,-60.295059,5.942521,60.513866,3.684238,-10.583804,5.480699,35.013908,-76.808182,174.435913
530,654984090,-58.726276,7.992106,63.425301,5.583008,-10.761653,4.465841,73.189545,-89.677834,194.054001
531,655000757,-56.482037,10.021755,66.732742,6.943559,-10.996824,3.568603,103.825493,-102.925621,207.927917
532,655017424,-53.757355,11.840678,70.395058,8.332869,-10.808255,2.510389,122.039101,-117.282928,212.992233
533,655034091,-50.698017,13.296046,74.296188,10.081485,-10.948863,1.664058,132.849701,-129.820114,209.039276
534,655050758,-47.320938,14.201928,78.302544,12.322358,-11.442922,0.507367,145.719101,-143.333252,194.265518
535,655067425,-43.601521,14.261769,82.355591,14.092152,-12.204285,-1.044512,163.604675,-168.253540,167.984375
536,655084092,-39.776207,13.161663,86.233864,13.375458,-11.758463,-3.044978,174.591843,-202.418243,125.024323
537,655100759,-36.272614,10.762674,89.463783,12.933974,-10.291306,-5.291780,170.286102,-232.976334,60.799175
538,655117426,-33.086124,6.951851,91.674286,11.879664,-9.072798,-9.130889,171.002365,-265.436493,-22.224024
539,655134093,-29.901100,1.718757,92.503906,8.292212,-7.341413,-16.170273,187.542114,-296.550873,-121.622322
540,655150760,-26.185387,-4.924507,91.570053,2.651970,-4.560934,-22.307724,221.472961,-328.356262,-236.810333
541,655167427,-20.922266,-13.301452,88.298706,-7.722743,4.556028,-22.411100,284.392181,-386.063232,-378.624146
542,655184094,-13.427154,-22.341665,81.474205,-27.772238,30.528440,-16.202873,323.220612,-405.337738,-532.846985
543,655200761,-1.534353,-26.152729,71.152702,-38.344707,89.541641,23.557110,457.682526,-155.407455,-589.788208
544,655217428,12.323576,-18.427773,61.051170,33.761745,68.983536,28.644482,598.586426,405.338287,-602.641418
545,655234095,24.448776,-7.265394,57.931923,34.425060,23.464184,-30.058237,683.655640,576.260742,-385.102448
546,655250762,32.380848,-0.843405,61.523743,-46.114761,-13.398332,-0.834844,490.871216,439.126587,6.001387
547,655267429,30.946453,-3.565000,64.509918,-42.973854,-16.867491,16.039007,-78.849724,-47.385704,238.252762
548,655284096,23.620901,-10.662031,67.071373,-19.937172,1.224628,3.419495,-419.641632,-311.085724,331.167694
549,655300763,16.853958,-13.751886,69.680344,4.557171,20.415680,2.690704,-372.571045,-123.506912,207.988327
550,655317430,15.742222,-12.399304,70.108215,4.675927,-1.909633,-5.687184,-60.711033,82.483902,1.421404
551,655334097,18.197748,-11.088084,68.478928,-0.942315,-2.347928,-2.234327,127.607002,44.874249,-114.319633
552,655350764,20.645203,-10.332945,66.982033,-7.543590,3.859624,-3.203514,130.329712,10.940106,-98.109894
553,655367431,21.912376,-10.400500,66.678123,-6.695582,2.968398,-1.375619,72.916824,-12.725617,-15.057970
554,655384098,21.215578,-11.585182,67.221535,-4.466959,0.662449,0.808629,-35.434650,-56.777481,56.076313
555,655400765,19.129677,-13.502430,68.253990,-3.365844,1.214379,2.488268,-111.536133,-89.559097,96.622566
556,655417432,16.716530,-15.200098,69.576859,-2.776596,2.500280,2.697922,-124.952469,-75.681290,104.713051
557,655434099,14.332974,-16.424234,70.860344,-3.151741,1.612391,3.927428,-121.876015,-53.361565,91.253387
558,655450766,12.059853,-17.519684,72.164200,-2.565755,1.384056,3.601555,-113.400391,-49.328564,88.068832
559,655467433,9.936882,-18.401989,73.564812,-2.916229,3.235813,2.831383,-101.316673,-39.130730,88.790207
560,655484100,7.769115,-19.051352,75.167709,-3.856672,3.797327,2.560484,-99.044113,-26.889370,96.216408
561,655500767,5.408363,-19.697470,77.040039,-4.449759,3.333936,2.673627,-104.231590,-28.749632,109.954971
562,655517434,2.719692,-20.455187,79.228424,-4.685984,3.835286,2.900864,-116.096443,-38.997036,126.477043
563,655534101,-0.408278,-21.093666,81.631607,-5.040488,5.147932,2.276762,-136.379654,-37.960480,135.813309
564,655550768,-3.778323,-21.327497,84.272339,-4.724547,6.159927,0.955180,-144.719620,-21.784826,147.360062
565,655567435,-7.312186,-21.151541,87.063324,-4.663475,6.094923,0.197682,-151.199753,-6.933173,156.650894
566,655584102,-11.057096,-20.672009,89.907944,-4.293023,5.478926,-0.071407,-163.601334,0.606936,162.272079
567,655600769,-14.952686,-19.943483,92.621452,-3.671571,4.854630,-0.618318,-177.051376,5.893807,158.911850
568,655617436,-18.773397,-18.952061,95.145393,-2.527569,4.560612,-0.863059,-178.642227,13.177876,154.226974
569,655634103,-22.492325,-17.714071,97.424210,-1.853292,5.080867,-1.030620,-179.942139,21.459330,147.974014
570,655650770,-26.079762,-16.166798,99.394547,-1.730179,5.801084,-1.130282,-180.604980,35.794701,141.614441
571,655667437,-29.367718,-14.228264,100.919449,-0.859969,5.618110,-1.768847,-173.089706,59.581440,132.631989
572,655684104,-32.248314,-11.902300,101.939445,0.646246,4.619524,-2.659015,-158.790695,87.037224,123.055832
573,655700771,-34.759407,-9.364847,102.546074,1.656020,2.992167,-3.683467,-143.730667,104.912933,114.255829
574,655717438,-37.214661,-6.865378,102.966248,1.362363,2.927385,-3.626763,-143.530319,104.386909,108.713051
575,655734105,-39.995075,-4.458137,103.242050,-0.033074,3.328635,-3.940786,-164.956863,100.297348,103.401756
576,655750772,-43.187473,-2.066174,103.291351,0.302783,2.099475,-4.225924,-191.131805,103.077316,97.906891
577,655767439,-46.622360,0.232039,103.065506,3.224819,1.157734,-4.120478,-206.062485,104.932182,88.183250
578,655784106,-49.971718,2.383623,102.508575,5.271094,1.021934,-3.728529,-199.947540,108.507835,74.606667
579,655800773,-53.130566,4.334906,101.581192,5.020524,0.906178,-3.535249,-186.013351,113.961899,57.606445
580,655817440,-56.110580,6.055756,100.263428,4.177886,1.098742,-3.342046,-171.379364,121.624535,39.051292
581,655834107,-59.088669,7.468751,98.606354,4.333903,0.544702,-3.053864,-166.711349,126.416901,19.140179
582,655850774,-62.254032,8.552478,96.734093,4.430576,-2.178458,-2.789103,-174.001129,126.440491,2.670285
583,655867441,-65.604729,9.283280,94.833366,4.534407,-5.582263,-1.942147,-183.098633,118.066063,-9.659208
584,655884108,-68.976990,9.630617,93.102951,4.163555,-6.635862,-0.833507,-185.018387,100.090401,-19.851261
585,655900775,-72.142319,9.602921,91.432709,3.603264,-5.543883,0.506382,-172.927048,90.167885,-34.003624
586,655917442,-74.903915,9.237798,89.530693,2.648396,-5.098729,1.947335,-146.764984,99.274445,-52.499706
587,655934109,-77.034355,8.553619,87.233360,1.994128,-6.440734,3.101118,-106.262230,119.681702,-72.408890
588,655950776,-78.453888,7.561134,84.627510,2.498403,-6.652505,3.861832,-63.015976,136.142670,-90.629509
589,655967443,-79.315605,6.274957,81.838608,3.463953,-6.336968,4.260533,-31.318037,145.617142,-107.333755
590,655984110,-79.721512,4.777514,79.068504,3.068570,-6.513504,4.208837,-8.125097,143.818787,-118.043541
591,656000777,-79.752327,3.286524,76.527298,1.396611,-6.730871,3.801682,9.089906,131.211945,-114.750076
592,656017444,-79.563576,1.984902,74.325600,0.136338,-6.437613,3.204218,17.611521,113.275497,-100.163544
593,656034111,-79.263855,1.043728,72.490379,-0.366344,-5.919699,2.512284,21.103085,95.299934,-75.399872
594,656050778,-78.940002,0.478665,71.051620,-0.452367,-5.645453,2.362682,20.785408,75.819427,-49.298805
595,656067445,-78.666550,0.202020,69.982628,-0.316024,-4.936774,2.253671,16.995216,57.160957,-28.442354
596,656084112,-78.385460,0.114539,69.136230,-0.152701,-4.132988,1.985487,17.212042,46.188667,-14.965653
597,656100779,-77.993896,0.171626,68.397476,-0.093857,-3.350960,1.762733,23.810150,41.547539,-5.451247
598,656117446,-77.399918,0.319024,67.667702,-0.039672,-2.549363,1.863727,36.035015,42.121544,-0.429760
599,656134113,-76.535027,0.548824,66.883751,-0.121061,-1.703357,1.940186,52.456013,46.386070,3.079756
600,656150780,-75.431389,0.852801,66.022469,-0.329749,-1.081763,1.564542,67.056030,52.006935,5.427289
601,656167447,-74.306686,1.234847,65.163773,-0.470638,-0.885639,0.812357,68.627754,53.165173,8.925375
602,656184114,-73.421181,1.647681,64.425095,-0.207645,-0.925859,0.169826,54.450470,46.895844,11.722017
603,656200781,-72.889565,2.025528,63.870384,0.110959,-0.980337,-0.456831,33.168274,35.859848,12.295545
604,656217448,-72.731728,2.332148,63.516163,0.441243,-0.718568,-0.604178,10.487860,23.177423,11.534640
605,656234115,-72.826439,2.571919,63.345970,0.665191,-0.299783,-0.182692,-5.036473,11.457180,10.953736
606,656250782,-72.987602,2.781745,63.281998,0.792139,-0.088103,0.171679,-9.277836,4.820128,11.138364
607,656267449,-73.081497,2.959160,63.278419,0.591903,-0.023875,0.160585,-5.408521,0.763560,10.351371
608,656284116,-73.076706,3.091840,63.314838,0.456098,0.058357,0.160295,0.387885,-2.318142,8.485047
609,656300783,-72.994408,3.171907,63.383171,0.430777,-0.169133,-0.153135,4.930670,-5.061366,6.022988
610,656317450,-72.847450,3.210260,63.492451,0.302489,-0.348186,-0.394586,8.670422,-8.133382,4.358074
611,656334117,-72.674553,3.207457,63.644497,0.258718,-0.178996,-0.391624,10.083812,-11.298463,2.773340
612,656350784,-72.508759,3.167322,63.801296,0.146476,-0.083551,-0.322562,9.644168,-12.235311,0.745951
613,656367451,-72.365936,3.128991,63.944107,0.140491,-0.259618,-0.263531,8.319657,-11.399797,0.622216
614,656384118,-72.237984,3.125576,64.084732,0.276040,-0.420966,-0.157187,7.438952,-10.635284,2.597226
615,656400785,-72.119446,3.148735,64.254677,0.052075,-0.502144,-0.129821,6.776222,-11.817170,4.670690
616,656417452,-72.001762,3.169569,64.450081,-0.128543,-0.304167,0.057000,6.638030,-13.302146,5.024505
617,656434119,-71.917679,3.188670,64.648857,-0.231144,-0.445234,0.136187,4.607620,-13.517127,5.006090
618,656450786,-71.870514,3.199829,64.852707,-0.216509,-1.053852,0.141666,2.371207,-13.950441,4.658857
619,656467453,-71.821709,3.182105,65.095985,-0.086428,-1.868181,0.286986,2.339421,-16.731693,3.754012
620,656484120,-71.727791,3.105681,65.415047,-0.013515,-2.330998,0.541970,4.807211,-22.145266,1.842293
621,656500787,-71.569221,2.964954,65.824326,-0.080883,-2.590146,0.882849,8.439249,-28.487555,-0.082601
622,656517454,-71.358139,2.785378,66.339279,-0.050874,-3.162837,1.204207,11.340366,-35.241032,-0.200536
623,656534121,-71.095078,2.585387,66.995750,0.268413,-3.840665,1.487008,14.166583,-43.672215,1.495235
624,656550788,-70.688507,2.338121,67.805473,0.847782,-4.175732,2.068645,22.535593,-53.286133,2.053093
625,656567455,-69.931183,2.047980,68.725525,1.362810,-4.009200,2.833239,43.560776,-60.380047,2.368971
626,656584122,-68.738846,1.796240,69.718239,1.577577,-3.636426,3.230961,69.777985,-63.607914,7.036427
627,656600789,-67.209496,1.695017,70.834633,1.610398,-3.786760,3.014271,89.961266,-66.929550,19.629528
628,656617456,-65.559174,1.780471,72.232582,1.608175,-4.576921,2.230978,96.718781,-77.360229,38.423946
629,656634123,-63.919262,2.001116,74.016785,1.975502,-5.026251,1.739826,95.106270,-93.717064,57.757145
630,656650790,-62.222149,2.301864,76.140396,2.421521,-4.622583,1.995125,97.286507,-107.965591,73.866219
631,656667457,-60.454838,2.677645,78.440170,2.608057,-3.795488,2.603354,100.289009,-112.780884,86.004593
632,656684124,-58.610462,3.164637,80.810501,2.756160,-3.844384,2.906535,103.657318,-110.255516,97.295395
633,656700791,-56.655380,3.760711,83.209877,3.455498,-3.951566,2.896422,108.854507,-104.884789,107.216904
634,656717458,-54.513866,4.470811,85.581451,4.071939,-4.087247,2.688997,118.522652,-95.683434,115.438515
635,656734125,-52.173275,5.236243,87.905273,4.756360,-4.610561,2.739153,128.884506,-86.735283,119.854820
636,656750792,-49.735939,5.965516,90.168053,6.176624,-5.249562,2.213094,133.242355,-80.092140,119.157982
637,656767459,-47.296867,6.528438,92.444099,7.492524,-6.622879,1.765418,131.741333,-82.070503,115.276466
638,656784126,-44.981590,6.704478,94.853699,8.809497,-7.575824,1.297309,122.524948,-99.002968,107.163963
639,656800793,-42.815964,6.287063,97.205849,9.721766,-8.368072,-0.479934,114.249596,-118.080505,83.697952
640,656817460,-40.800678,5.238023,99.156723,11.562717,-9.306856,-3.337685,109.455086,-127.399666,44.858269
641,656834127,-38.510220,3.616187,100.262154,14.222949,-9.835210,-5.105583,132.615524,-120.017479,-11.198527
642,656850794,-35.599300,1.360268,100.293221,13.440597,-10.344408,-7.753496,174.902847,-112.098930,-80.113930
643,656867461,-32.104527,-1.640152,99.284439,9.013981,-10.170809,-11.861011,209.871536,-118.802986,-150.609467
644,656884128,-28.327436,-5.512033,97.177094,2.358430,-10.237076,-16.157196,219.044540,-140.275391,-226.041000
645,656900795,-24.342621,-10.512005,93.777641,-5.158723,-7.064641,-18.620335,210.874115,-182.261490,-314.189117
646,656917462,-19.713751,-16.541933,88.715263,-11.210447,2.075852,-18.407478,206.686035,-227.467819,-409.555237
647,656934129,-13.416313,-22.810902,81.484680,-16.802605,16.939112,-15.885740,231.355286,-246.606583,-498.865601
648,656950796,-4.400697,-27.234928,72.103310,-26.541613,41.179527,3.353054,302.010529,-185.637344,-545.021179
649,656967463,5.751681,-26.717342,63.776871,-13.147186,62.169968,35.967281,382.083435,22.950640,-445.557678
650,656984130,11.637872,-22.445793,58.579220,23.262760,37.094543,9.053034,223.385971,207.739273,-318.972931
651,657000797,14.951246,-17.974022,57.571323,0.224751,7.726455,-13.674541,178.178940,245.666687,-116.815193
652,657017464,16.112017,-17.351053,59.748508,-31.341480,-14.146841,-4.102235,109.646225,66.957024,110.059624
653,657034131,12.731394,-22.151747,62.191101,-20.998354,-4.342631,2.128126,-152.866028,-247.033524,205.550812
654,657050798,5.721075,-27.754433,64.912460,-7.529418,14.197990,6.009722,-351.092529,-310.619141,200.371231
655,657067465,-1.231068,-29.731792,67.235054,-1.890344,13.137397,6.658087,-349.846069,-116.236969,127.034828
656,657084132,-4.485471,-29.822720,68.445145,5.771381,-0.283982,-1.116003,-159.033203,-10.987296,62.929626
657,657100799,-4.645594,-29.528042,68.718613,4.046026,1.521059,1.687196,-1.295454,14.096375,15.864909
658,657117466,-3.644092,-28.867983,68.482796,-1.335903,3.128294,3.233356,53.389259,38.006931,-9.216423
659,657134133,-3.036813,-28.799612,68.885956,-6.501724,-1.136707,3.029882,48.297142,0.487408,21.634665
660,657150800,-3.741024,-30.075577,70.091034,-7.389173,-1.256194,1.915548,-6.537570,-82.521362,58.585682
661,657167467,-5.330464,-31.682901,71.729118,-3.085613,3.001128,2.861621,-44.757675,-105.188240,76.733101
662,657184134,-6.610776,-32.595547,73.320427,-1.397337,2.836319,2.888576,-25.877214,-65.244446,74.988342
663,657200801,-7.741822,-33.052277,74.926575,-2.013283,2.469205,2.232217,-15.477486,-39.669083,77.208588
664,657217468,-8.820349,-33.099731,76.889732,-1.796210,3.273580,2.471854,-0.280635,-19.388311,97.551735
665,657234135,-9.625466,-32.852715,78.752190,-2.515447,3.286440,2.319042,12.658995,-2.738010,95.201118
666,657250802,-10.461150,-32.472382,80.753021,-3.129644,2.969914,2.117859,14.789325,2.517640,103.795647
667,657267469,-11.482969,-32.098957,82.933929,-4.044663,3.088182,2.090188,8.724958,-1.372391,113.171196
668,657284136,-12.798257,-31.737457,85.319534,-4.825900,3.171466,1.547685,-3.100021,-6.644113,123.655220
669,657300803,-14.294538,-31.364969,87.769608,-4.977666,2.424501,0.950312,-12.723797,-9.896157,127.346748
670,657317470,-15.965561,-30.944595,90.188934,-4.259146,2.215794,0.217880,-25.035021,-10.341690,126.840111
671,657334137,-17.743645,-30.420216,92.504379,-3.867612,1.828008,-0.054195,-35.668602,-6.783538,123.821510
672,657350804,-19.612148,-29.747082,94.712585,-3.781983,1.730915,-0.376521,-45.571743,-0.696873,121.908348
673,657367471,-21.666191,-28.941141,96.873466,-3.452053,1.729134,-0.567496,-59.581810,3.183030,123.189812
674,657384138,-23.792822,-28.050280,98.922890,-2.530892,1.961217,-0.239406,-68.806709,5.323097,120.722664
675,657400805,-25.866741,-27.046083,100.765793,-1.623518,2.245148,-0.037412,-73.165871,11.301723,114.686417
676,657417472,-27.709597,-25.848934,102.328171,-1.151965,2.490365,-0.164305,-68.686111,24.088598,107.721375
677,657434139,-29.390379,-24.401814,103.669624,-1.342042,2.681109,-0.498267,-66.528137,39.247429,105.942192
678,657450806,-31.166916,-22.718370,104.899742,-1.826967,3.015522,-1.021552,-76.936714,50.933170,109.800461
679,657467473,-32.992279,-20.850515,106.000237,-1.187727,2.943193,-1.120830,-84.852592,60.221848,111.937477
680,657484140,-34.735630,-18.816603,106.902023,-0.168740,2.876125,-1.185193,-86.070541,70.807838,110.739677
681,657500807,-36.429321,-16.676710,107.569473,0.015009,1.969967,-1.537601,-89.228966,80.064735,106.219757
682,657517474,-38.230534,-14.520011,108.134941,-0.637935,2.035444,-1.359350,-98.752312,80.917374,104.953743
683,657534141,-40.261860,-12.289546,108.633171,-1.221462,3.338488,-1.567904,-114.741623,83.075981,107.702110
684,657550808,-42.329361,-9.885590,108.898010,-0.190116,3.655825,-3.092034,-120.776871,95.910339,107.435806
685,657567475,-43.657490,-7.148637,108.645264,3.285141,4.460849,-4.045803,-81.711380,128.171631,101.549210
686,657584142,-43.762928,-4.058397,107.785027,4.466537,5.222767,-1.326127,-11.138359,167.341721,91.526863
687,657600809,-42.867058,-0.712943,106.398087,1.807764,3.502457,-0.177480,50.516312,200.905182,77.728561
688,657617476,-41.458023,2.607228,104.716408,-1.266225,-0.132667,-0.195481,86.428818,213.207001,59.448936
689,657634143,-40.508301,5.493504,103.123909,-2.337246,-2.995102,0.058544,63.948280,191.060883,42.127831
690,657650810,-40.488518,7.650629,101.823891,-2.060133,-6.672787,-1.496836,10.320877,146.550583,25.619299
691,657667477,-41.522827,8.876610,100.888687,-0.172580,-9.007380,-2.775872,-53.809193,89.729431,6.831280
692,657684144,-43.500710,9.142076,100.169418,3.433517,-9.251991,-3.705235,-111.752281,38.286491,-20.207535
693,657700811,-45.968697,8.581090,99.431747,6.549760,-8.213496,-2.270857,-141.101227,4.561471,-54.334133
694,657717478,-48.324409,7.424062,98.467392,6.799337,-6.455207,0.357354,-133.112595,-7.566576,-89.467995
695,657734145,-50.133625,5.953752,97.111946,6.065198,-4.001835,1.879315,-98.890450,1.172296,-119.186409
696,657750812,-51.330517,4.433802,95.400383,5.371619,-3.994684,2.110316,-62.316700,19.038305,-134.978973
697,657767479,-51.927204,2.947543,93.507072,4.797704,-5.407236,1.646707,-28.281311,31.077925,-139.939667
698,657784146,-51.916134,1.663098,91.550674,4.738458,-5.835256,1.328554,5.595036,42.332378,-132.680359
699,657800813,-51.725376,0.552117,89.823303,3.753435,-5.444117,1.566537,13.666371,37.762714,-116.154884
700,657817480,-51.750957,-0.454112,88.461220,2.679280,-4.560709,1.804016,-1.239084,24.272993,-97.740845
701,657834147,-52.058064,-1.349357,87.495209,1.641411,-3.707093,1.479767,-19.105555,9.939345,-77.771011
702,657850814,-52.559856,-2.080690,86.852379,1.067591,-1.958738,1.576557,-31.026260,1.143106,-58.051781
703,657867481,-53.119530,-2.593909,86.410698,0.358492,-0.893973,1.745303,-34.423923,-0.039598,-40.301376
704,657884148,-53.625042,-2.847508,86.147415,-0.835408,-0.582899,1.423159,-30.844246,1.037185,-21.391859
705,657900815,-54.049538,-2.800962,86.056740,-1.598814,-0.467377,0.788095,-25.505428,3.487772,-0.721511
706,657917482,-54.477436,-2.516164,86.143257,-1.735149,-1.069024,0.023620,-25.205923,3.224803,17.126526
707,657934149,-54.975304,-2.127986,86.433022,-1.546003,-1.496511,-0.206545,-28.947182,-3.280802,29.271183
708,657950816,-55.535046,-1.764425,86.914665,-1.317439,-1.764776,-0.022619,-32.389290,-13.852556,34.607349
709,657967483,-56.091442,-1.500066,87.547165,-1.179613,-1.661635,0.265104,-32.092934,-25.021582,34.654484
710,657984150,-56.516273,-1.298983,88.260132,-0.954973,-0.983746,0.770596,-24.239195,-31.442083,33.978687
711,658000817,-56.751110,-1.097035,88.996078,-0.839759,-0.330326,1.141119,-12.964723,-32.764511,34.613922
712,658017484,-56.763416,-0.811647,89.719711,-0.954403,0.081979,0.850194,0.183408,-29.478947,38.332531
713,658034151,-56.628395,-0.420441,90.459908,-1.007188,0.055032,0.422493,8.776117,-26.785152,44.215435
714,658050818,-56.520454,0.006733,91.314888,-1.185024,-0.463873,-0.248058,6.857368,-31.251356,49.865074
715,658067485,-56.525593,0.422825,92.354828,-1.350755,-0.926490,-0.816605,-0.349299,-40.825523,55.456108
716,658084152,-56.657345,0.821821,93.588409,-0.924918,-0.653227,-0.688028,-8.518606,-51.153725,60.946804
717,658100819,-56.812523,1.238661,94.934334,-0.287445,-0.629354,-0.514102,-10.574755,-56.348083,65.413574
718,658117486,-56.898384,1.702011,96.396858,-0.029630,-1.110800,-0.397737,-7.215323,-60.804436,71.453400
719,658134153,-56.873528,2.178447,98.010170,-0.145665,-1.345396,0.027380,-1.598253,-67.969948,77.006073
720,658150820,-56.751965,2.592564,99.755470,-0.585428,-0.839973,0.452394,3.121263,-76.517891,78.274422
721,658167487,-56.608673,2.936918,101.589027,-0.640274,-0.420814,0.767681,3.475655,-83.029694,77.835052
722,658184154,-56.485600,3.214111,103.496361,-0.183567,0.148612,1.350005,1.429278,-88.727310,77.079575
723,658200821,-56.390556,3.421631,105.452385,0.228684,0.528380,1.765665,-0.904302,-93.299690,75.361046
724,658217488,-56.327682,3.555236,107.454788,0.193847,0.810868,1.875835,-3.349165,-97.947273,73.322563
725,658234155,-56.334042,3.644244,109.488510,-0.018520,1.187374,2.049256,-7.851655,-100.941299,72.177490
726,658250822,-56.411335,3.707204,111.488129,0.086320,1.359659,1.775380,-12.134288,-100.147560,69.671150
727,658267489,-56.522701,3.769557,113.396584,0.492294,1.154756,1.292409,-13.949457,-95.725525,66.463127
728,658284156,-56.623112,3.825481,115.189789,0.808404,0.922453,1.162628,-12.946802,-90.290359,62.164387
729,658300823,-56.672310,3.851077,116.849632,0.791941,1.286312,1.434284,-9.412564,-84.702408,56.140388
730,658317490,-56.628643,3.893648,118.330322,0.891546,1.567931,1.280186,-3.169677,-75.183296,51.091225
731,658334157,-56.453445,4.010642,119.623863,1.194059,1.492135,0.887566,5.377514,-63.268803,48.776218
732,658350824,-56.199001,4.195158,120.773125,1.479291,1.291247,0.645844,10.553325,-53.643063,47.579063
733,658367491,-55.976345,4.383497,121.841400,1.563367,1.313226,0.452370,8.792999,-49.281643,45.268394
734,658384158,-55.833004,4.553332,122.849449,1.285460,1.398464,0.066542,4.118895,-46.766865,42.470631
735,658400825,-55.774883,4.738600,123.788216,0.933569,1.515355,-0.313995,-0.839326,-42.733944,40.977367
736,658417492,-55.792469,4.981280,124.628151,0.705251,1.583507,-0.655091,-5.083700,-35.883511,40.508923
737,658434159,-55.891594,5.283038,125.354218,0.740956,1.299604,-1.113342,-9.600605,-28.286165,39.576336
738,658450826,-56.096333,5.601363,125.989754,0.595991,0.872345,-1.400010,-15.652169,-23.332247,37.295853
739,658467493,-56.427105,5.904352,126.536781,0.196856,0.773657,-1.431845,-22.888094,-19.608528,33.488480
740,658484160,-56.875000,6.208459,126.961784,-0.002359,0.746283,-1.438814,-29.313177,-13.698506,29.415176
741,658500827,-57.421627,6.549083,127.266113,0.180073,0.576603,-1.580627,-34.573837,-6.705221,27.245796
742,658517494,-58.040741,6.913075,127.479004,0.124080,0.376415,-1.617143,-38.391560,-1.611678,25.473089
743,658534161,-58.694725,7.280986,127.612358,-0.272891,0.432692,-1.599908,-39.975452,2.268425,23.193663
744,658550828,-59.313541,7.662742,127.631538,-0.669985,0.510910,-1.508130,-37.027214,8.265663,20.459026
745,658567495,-59.846180,8.063241,127.510658,-1.015330,0.374401,-1.459646,-30.713774,15.815637,17.321287
746,658584162,-60.310699,8.483418,127.260139,-1.003269,0.230428,-1.469855,-25.459478,22.919706,14.670545
747,658600829,-60.749313,8.909636,126.928101,-0.773317,-0.183812,-1.527779,-23.058386,27.180340,12.815758
748,658617496,-61.191486,9.306508,126.574905,-0.772374,-0.334769,-1.289468,-22.930252,27.305607,10.908341
749,658634163,-61.644588,9.623214,126.189697,-1.068162,-0.171600,-0.881904,-23.142292,26.566154,6.022296
750,658650830,-62.062965,9.846225,125.714951,-1.371964,0.408346,-0.462298,-20.046951,28.520586,-1.200395
751,658667497,-62.360966,9.992734,125.101814,-1.343721,0.739309,-0.190186,-11.305062,33.614231,-8.870973
752,658684164,-62.580925,10.057049,124.400986,-1.248497,0.448167,-0.044867,-5.641228,35.962814,-15.468159
753,658700831,-62.829700,10.007253,123.654823,-0.910432,0.221385,-0.212506,-6.892102,35.267525,-22.619823
754,658717498,-63.165329,9.838100,122.885223,-0.493770,-0.128360,-0.038366,-11.948925,33.378963,-29.441452
755,658734165,-63.588242,9.525830,122.091148,-0.410231,-0.208769,0.148666,-17.128859,31.052340,-37.543098
756,658750832,-64.078796,9.063147,121.226051,-0.577965,0.257277,0.145204,-20.820423,31.193901,-47.251305
757,658767499,-64.607391,8.501897,120.237503,-0.656927,0.617449,-0.062198,-22.428457,35.723053,-55.481728
758,658784166,-65.127579,7.923932,119.130150,-0.514807,0.344511,-0.223098,-21.492182,42.270153,-59.068466
759,658800833,-65.612740,7.367442,117.993935,-0.104359,-0.207977,-0.300411,-19.809895,44.968800,-58.252903
760,658817500,-66.078049,6.843764,116.929123,0.482331,-0.338189,-0.152743,-19.789793,42.453995,-54.356838
761,658834167,-66.492950,6.348600,115.953720,0.890259,-0.084383,-0.014022,-17.944864,38.743587,-50.328815
762,658850834,-66.824837,5.879007,115.034004,1.089279,0.302598,0.279139,-13.808105,36.675549,-47.356636
763,658867501,-67.066185,5.461503,114.128815,1.207777,0.401777,0.540494,-8.887074,37.378094,-43.963551
764,658884168,-67.226799,5.155967,113.280960,0.950314,-0.299640,0.418640,-4.699821,37.018635,-36.317486
765,658900835,-67.372131,4.989199,112.536903,-0.133164,-0.376476,0.774250,-4.541379,34.618748,-26.145861
766,658917502,-67.533386,4.981965,111.798241,-0.992213,0.815172,1.928903,-5.592350,38.066540,-17.085363
767,658934169,-67.716377,5.118641,110.931091,-1.043069,1.747544,2.777846,-6.170168,48.504097,-11.898000
768,658950836,-67.902863,5.436596,109.931732,-0.815601,1.470953,1.957315,-5.446059,59.947601,-4.634319
769,658967503,-68.199478,5.905194,108.848518,-0.239948,0.312638,1.108441,-11.145424,67.955574,2.158617
770,658984170,-68.595810,6.410317,107.761421,0.348616,-0.801804,1.029405,-16.554869,68.912079,4.556804
771,659000837,-68.998863,6.907545,106.713829,0.419295,-1.390462,0.908164,-16.668535,66.452759,5.489130
772,659017504,-69.337517,7.366815,105.693626,0.382339,-1.526341,1.386960,-12.487210,64.022354,4.404189
773,659034171,-69.533958,7.792088,104.672073,1.034629,-1.586641,1.844909,-3.477805,63.304134,2.793623
774,659050838,-69.510216,8.207994,103.681053,1.815559,-2.382259,1.694674,9.922605,61.342899,3.019721
775,659067505,-69.325356,8.594823,102.796684,2.539045,-3.168239,1.611312,19.068375,54.750416,3.508079
776,659084172,-69.031815,8.918935,102.062386,3.202950,-4.139295,2.145411,24.544920,45.057629,2.924005
777,659100839,-68.620117,9.187419,101.515656,3.518718,-5.095610,3.009816,30.092735,33.469448,3.532842
778,659117506,-68.138802,9.450506,101.230797,4.107099,-6.153350,3.783328,31.878235,18.928835,8.659666
779,659134173,-67.614334,9.765989,101.319908,5.403643,-7.191308,4.122720,30.809204,-0.331059,19.702362
780,659150840,-66.887138,10.180761,101.813011,7.013434,-7.555275,4.584246,38.746227,-19.832830,34.379009
781,659167507,-65.810539,10.709862,102.612053,8.381701,-7.420228,5.294809,56.146275,-33.055359,48.135372
782,659184174,-64.451736,11.281667,103.728210,10.117139,-8.156935,5.840837,69.004784,-47.832706,58.893066
783,659200841,-62.901390,11.743678,105.374695,11.973512,-8.208110,5.381477,73.559509,-77.110626,67.866814
784,659217508,-61.195122,12.032061,107.668251,13.553992,-7.688281,4.018559,74.287636,-113.503151,78.471184
785,659234175,-59.329334,12.071380,110.544571,14.663762,-6.884073,2.353511,76.176155,-148.063522,85.808723
786,659250842,-57.169563,11.802271,113.807922,15.009696,-4.421659,1.016176,89.345497,-174.109222,87.097939
787,659267509,-54.760357,11.132133,117.202454,14.808930,-1.688969,-0.230963,104.315392,-190.663315,78.406914
788,659284176,-52.234600,9.900768,120.553810,14.726772,-0.320041,-0.787100,115.103348,-205.640976,58.217827
789,659300843,-49.636814,7.884974,123.701134,14.682521,1.330701,-2.167616,126.934097,-223.886612,23.668474
790,659317510,-46.654903,5.053100,126.384644,13.791763,3.618379,-3.843625,161.028854,-235.383820,-19.817898
791,659334177,-43.151016,1.521480,128.393005,10.688190,4.786263,-6.840430,203.575867,-237.907700,-64.387901
792,659350844,-39.391335,-2.700662,129.573502,8.244581,3.919460,-10.438110,226.558136,-240.053040,-113.901161
793,659367511,-35.118340,-7.749708,129.704102,5.372010,4.665925,-14.694348,257.305603,-248.813248,-177.239899
794,659384178,-29.605745,-13.408563,128.500107,-1.306024,6.478307,-16.935869,317.605988,-251.761246,-241.828827
795,659400845,-22.515036,-19.414486,125.817169,-13.944775,8.248797,-14.855518,379.903015,-258.821320,-297.183319
796,659417512,-13.571110,-24.639874,120.902725,-32.434139,11.689641,-3.370687,425.790131,-216.219269,-357.174774
797,659434179,-2.401778,-26.574715,113.777931,-39.214203,20.871464,12.752674,485.041840,-64.072029,-398.033722
798,659450846,10.734918,-23.520582,106.627296,-19.705597,29.267504,12.514513,605.890747,151.806824,-401.296295
799,659467513,22.338797,-17.604219,102.501694,-10.055577,19.080784,-2.925819,608.745728,271.952301,-323.507629
800,659484180,29.579302,-12.622280,101.746941,-13.896517,0.021936,-3.487967,422.712219,247.274628,-170.112671
801,659500847,30.461660,-10.961266,103.026428,-16.407135,-12.866934,2.264314,68.962082,121.412270,15.360870
802,659517514,26.276316,-13.316936,105.523598,-13.043016,-13.922903,1.633368,-219.254425,-57.227848,196.242630
803,659534181,20.918432,-16.937828,108.535789,-7.106140,-3.177863,-1.196798,-273.889130,-131.706009,247.104034
804,659550848,17.461849,-18.780310,110.427727,-3.820110,3.372923,-1.116154,-172.330154,-71.368904,138.595459
805,659567515,17.294535,-18.743416,110.550697,-1.892800,-2.776628,-3.324309,-7.455039,1.725393,6.202161
806,659584182,19.117779,-18.040079,109.793610,-3.246764,-2.418538,-1.618019,95.262802,24.142347,-53.926987
807,659600849,21.165592,-17.242546,109.319824,-4.747531,-3.410684,-1.256141,114.441696,33.115723,-41.711460
808,659617516,22.399963,-16.907671,109.527840,-4.843923,-3.756772,-0.423644,77.902618,20.602346,3.827335
809,659634183,22.396818,-17.326263,110.108116,-3.886504,-3.510441,2.361727,10.221462,-13.026180,40.540672
810,659650850,21.374695,-18.309551,110.801613,-4.175535,-1.663929,4.312914,-48.440125,-42.463524,58.968437
811,659667517,19.769648,-19.465654,111.680779,-4.429532,-0.265285,3.797692,-79.077141,-49.886574,71.322662
812,659684184,17.969566,-20.568346,112.722588,-3.942988,0.234055,2.446870,-86.462448,-46.085575,77.195938
813,659700851,16.091133,-21.577393,113.942482,-3.926876,-0.143884,1.648539,-86.248573,-40.354176,83.257149
814,659717518,14.049308,-22.597500,115.270615,-4.296129,-0.109741,1.517807,-92.403275,-42.363960,87.444633
815,659734185,11.734597,-23.448990,116.787987,-6.427909,1.563485,1.577474,-103.136124,-33.562431,93.308228
816,659750852,9.055206,-23.832756,118.794479,-5.941283,0.684228,1.307176,-112.345909,-5.191020,112.869026
817,659767519,5.994001,-24.272196,121.036690,-4.520287,-1.221360,0.633925,-128.696350,-12.483213,125.490372
818,659784186,2.574171,-24.839958,123.361717,-4.762180,-0.210856,0.977269,-147.067398,-26.917814,129.330078
819,659800853,-1.163095,-25.335621,125.837044,-4.892910,0.032088,1.034240,-161.110092,-30.501003,135.128128
820,659817520,-5.052951,-25.676561,128.366074,-5.040881,-0.102115,0.715431,-167.894073,-30.267202,135.916077
821,659834187,-9.032218,-25.647877,130.871231,-5.422198,0.042407,0.249470,-173.506607,-17.314602,134.953262
822,659850854,-13.194220,-25.114538,133.363388,-5.147570,-0.071316,-0.513337,-185.463577,2.950277,139.023315
823,659867521,-17.764984,-24.298523,135.773254,-4.291418,-0.586473,-1.946072,-213.640656,9.719100,139.969299
824,659884188,-22.621979,-23.304665,137.993317,-3.260282,0.610418,-2.395164,-237.490326,11.490115,135.292847
825,659900855,-27.402836,-22.042831,139.875580,-2.412304,1.988964,-1.731243,-243.141815,22.144674,126.781410
826,659917522,-31.807007,-20.440477,141.303726,-1.987183,2.764160,-1.137848,-233.025757,41.730980,117.278656
827,659934189,-35.733356,-18.497942,142.237167,-2.063469,3.500632,-1.497421,-216.726532,65.132568,109.028160
828,659950856,-39.109337,-16.234917,142.627457,-1.264723,3.394251,-1.559348,-195.371109,91.852821,100.606056
829,659967523,-42.071896,-13.861812,142.541519,0.368803,3.176721,-1.484711,-178.888672,108.958351,89.210014
830,659984190,-44.718815,-11.519072,142.090302,1.665961,2.976653,-2.125997,-164.553696,117.870827,77.723602
831,660000857,-47.154877,-9.264300,141.412704,2.104430,3.080085,-2.637658,-153.282608,120.397003,69.740334
832,660017524,-49.528057,-7.156572,140.582779,1.795357,2.736015,-2.192799,-149.281921,118.446152,62.059715
833,660034191,-52.004803,-5.245205,139.596878,2.297462,2.332385,-1.864771,-154.767563,115.641563,51.967014
834,660050858,-54.506851,-3.525214,138.437744,4.023619,2.322343,-1.884625,-155.210449,114.851273,41.539639
835,660067525,-56.820347,-2.036435,137.157654,5.990352,2.694503,-1.613388,-142.300858,111.259689,30.814064
836,660084192,-58.775658,-0.854577,135.838120,5.846508,1.853194,-0.675981,-119.077339,102.277985,18.139336
837,660100859,-60.379452,0.017437,134.469131,4.623421,0.517711,-0.200411,-96.582504,94.827354,3.829519
838,660117526,-61.865551,0.616662,133.050049,4.896791,-0.037186,0.310367,-88.448639,89.414764,-9.339131
839,660134193,-63.321129,0.918524,131.744370,6.807035,-1.027385,0.636810,-86.036751,75.367264,-19.689901
840,660150860,-64.583717,0.912111,130.736008,6.933594,-2.661920,1.201421,-74.537750,51.659210,-26.633949
841,660167527,-65.468117,0.751108,129.956772,5.045742,-2.655270,2.271921,-52.134529,35.768848,-28.234941
842,660184194,-65.996124,0.580731,129.121750,3.695508,-1.569601,2.991345,-30.847897,38.926872,-29.658485
843,660200861,-66.279778,0.498228,128.082977,3.493019,-1.517096,3.076534,-16.180672,52.447933,-29.496655
844,660217528,-66.564301,0.512404,127.002998,3.855877,-2.773401,2.256655,-16.249393,57.178684,-24.903694
845,660234195,-67.030540,0.614811,126.096825,3.537603,-3.968362,1.565934,-27.188068,49.839352,-15.547263
846,660250862,-67.763702,0.758894,125.406525,2.667093,-3.787847,1.891091,-43.242676,39.000526,-7.721234
847,660267529,-68.556931,0.988895,124.758705,2.257868,-2.846464,2.453657,-46.754612,38.646675,-1.440131
848,660284196,-69.183929,1.332350,124.005013,2.388180,-2.223344,2.491562,-36.460285,47.037071,3.125396
849,660300863,-69.549789,1.756633,123.143478,2.341395,-1.883005,2.246098,-20.315342,54.758999,5.813186
850,660317530,-69.739403,2.226015,122.264557,1.918471,-1.736832,1.597697,-9.301695,56.639870,8.263786
851,660334197,-69.851524,2.724681,121.473427,1.533618,-1.853924,1.068212,-4.432976,52.270866,11.888618
852,660350864,-69.970329,3.239413,120.828300,1.198390,-1.421697,0.971722,-4.874173,44.342186,15.913482
853,660367531,-70.109818,3.747649,120.319000,1.438418,-0.862787,0.834373,-6.265429,36.503559,18.436138
854,660384198,-70.197784,4.244938,119.919617,1.662510,-0.759256,0.488529,-3.367188,30.041113,20.133101
855,660400865,-70.212502,4.683064,119.614006,1.579488,-0.816161,-0.005262,0.786767,23.530405,18.724998
856,660417532,-70.151131,5.051506,119.351425,1.247633,-0.650049,-0.294595,5.263070,19.691826,15.655371
857,660434199,-70.031792,5.384847,119.127205,0.809149,-0.530273,-0.332047,8.627687,16.834795,14.421893
858,660450866,-69.953545,5.680383,118.980095,0.657979,-0.784425,-0.576776,5.787959,11.746159,13.836503
859,660467533,-69.988632,5.935896,118.977676,0.510993,-1.075037,-0.621478,-1.847753,2.809773,14.533968
860,660484200,-70.146339,6.129490,119.100739,0.712348,-0.972909,-0.710107,-9.997519,-5.517341,13.601812
861,660500867,-70.324249,6.274343,119.255272,0.668909,-0.458629,-0.465746,-11.436327,-8.307885,11.474304
862,660517534,-70.467293,6.374824,119.361763,0.655599,-0.538555,-0.670764,-9.045925,-6.534688,7.990098
863,660534201,-70.624626,6.422691,119.440407,0.702166,-0.969800,-1.079596,-9.727658,-6.040579,4.448897
864,660550868,-70.861206,6.407864,119.583214,0.702030,-1.374223,-1.096391,-14.911204,-10.902007,2.145098
865,660567535,-71.243744,6.310688,119.869606,0.587031,-1.381631,-1.149399,-24.619017,-20.617887,0.206522
866,660584202,-71.765694,6.151814,120.286682,0.578506,-1.137694,-1.266542,-33.795681,-29.185986,-0.973289
867,660600869,-72.274628,5.963636,120.719200,0.364491,-0.238057,-0.594296,-33.041401,-30.604887,-2.599362
868,660617536,-72.707954,5.772224,121.063454,-0.023432,0.311721,0.048203,-27.874866,-25.619759,-4.596402
869,660634203,-73.075905,5.603618,121.324677,-0.028997,0.239570,0.301711,-23.396910,-20.452515,-4.903607
870,660650870,-73.397881,5.459753,121.578377,0.095954,0.187719,0.497155,-20.551474,-19.567419,-3.716798
871,660667537,-73.655655,5.356023,121.822052,-0.008308,0.684816,0.777854,-16.612446,-18.293230,-1.661294
872,660684204,-73.826347,5.342535,122.018120,-0.229469,0.742202,0.799703,-11.105487,-14.040092,2.684336
873,660700871,-73.981888,5.443328,122.208290,-0.168141,0.415657,0.445027,-10.170570,-11.806840,9.143904
874,660717538,-74.217758,5.626325,122.447136,-0.056880,-0.050115,0.018971,-15.301188,-13.275283,14.651475
875,660734205,-74.586990,5.844632,122.748497,-0.139624,-0.241411,-0.221904,-23.727072,-16.371164,17.639235
876,660750872,-75.053116,6.071385,123.062378,-0.330790,-0.285473,-0.325486,-29.688593,-17.078022,18.221476
877,660767539,-75.503578,6.283320,123.308395,-0.748649,0.031006,-0.094084,-28.385910,-13.527444,16.215477
878,660784206,-75.860901,6.492539,123.398857,-0.846298,0.127950,-0.287752,-21.813810,-4.687661,13.686826
879,660800873,-76.169098,6.731171,123.356636,-0.658553,-0.035261,-0.615905,-17.971632,3.340741,13.477048
880,660817540,-76.572968,6.982635,123.281677,-0.481706,-0.663952,-1.061855,-23.466856,5.334519,13.803574
881,660834207,-77.183533,7.225050,123.259483,-0.330083,-1.006013,-1.497169,-36.242687,2.029337,14.058522
882,660850874,-78.023468,7.436152,123.308723,-0.284233,-0.995376,-1.745277,-50.548241,-2.706059,13.193631
883,660867541,-79.070732,7.630037,123.400986,-0.105926,-0.882967,-2.039022,-63.339008,-5.629870,12.685204
884,660884208,-80.328133,7.810511,123.567345,0.018555,-1.161352,-2.471157,-76.562637,-10.354476,12.615235
885,660900875,-81.791359,7.935457,123.816772,-0.054019,-1.335311,-2.956155,-89.623138,-16.038378,9.901285
886,660917542,-83.445190,7.957514,124.118256,-0.216999,-1.414326,-3.533165,-101.511940,-20.155970,3.805006
887,660934209,-85.259811,7.822383,124.405502,-0.328564,-1.633478,-4.238550,-111.027039,-20.340368,-6.199154
888,660950876,-87.222275,7.487707,124.618568,-0.299469,-1.620186,-4.801339,-119.236992,-16.513590,-19.019230
889,660967543,-89.200241,6.921557,124.583557,0.139033,-0.867284,-4.239211,-118.202980,-1.527200,-33.829750
890,660984210,-91.052559,6.091945,124.209816,1.061573,-0.151517,-2.700713,-108.384949,19.838110,-49.540474
891,661000877,-92.695984,4.919093,123.586220,2.087990,-0.283453,-1.343861,-94.800415,36.974419,-68.928566
892,661017544,-94.156029,3.422182,122.966835,3.208011,-1.054484,-0.583238,-84.678909,39.819572,-87.254608
893,661034211,-95.389458,1.675768,122.570740,3.848177,-1.681259,0.149161,-72.724983,29.830444,-102.267128
894,661050878,-96.285889,-0.238538,122.362633,3.822752,-1.599487,1.938787,-53.402031,21.553072,-112.820747
895,661067545,-96.782280,-2.247210,122.213341,4.344788,-2.270317,2.873644,-29.749384,20.063595,-118.552345
896,661084212,-97.155495,-4.259695,122.283157,5.469141,-3.645240,2.158166,-21.925207,7.953067,-120.207207
897,661100879,-97.712311,-6.196643,122.756187,6.162537,-4.527256,1.534307,-30.589418,-15.533080,-118.752556
898,661117546,-98.468658,-7.975886,123.603477,6.680914,-4.782388,1.847681,-38.873764,-37.461979,-112.660767
899,661134213,-99.498360,-9.523478,124.852280,6.936847,-5.233742,1.448778,-50.145863,-61.192764,-103.165733
900,661150880,-101.003006,-10.851263,126.602272,7.121263,-5.811245,0.096777,-71.465118,-90.055954,-96.686554
901,661167547,-103.283867,-11.947230,128.970230,7.263068,-5.809784,-1.284696,-108.520378,-124.859192,-93.502556
902,661184214,-106.090614,-12.900863,131.738098,8.025907,-4.599301,0.333246,-132.418060,-144.907806,-96.405571
903,661200881,-108.644585,-13.845768,134.454178,9.227018,-2.501538,4.735582,-115.298378,-136.912277,-101.387100
904,661217548,-110.495796,-14.727146,136.863647,8.619431,-1.176271,9.133137,-75.166122,-116.795074,-96.721489
905,661234215,-111.521011,-15.761395,139.058838,7.949162,-2.294864,12.343861,-26.662046,-98.874199,-103.464104
906,661250882,-111.654274,-17.018438,141.136475,8.231152,-2.527928,13.978104,27.388910,-85.943230,-114.124878
907,661267549,-110.747574,-18.327250,142.937134,7.891417,0.182250,14.999477,87.397392,-70.063416,-110.452599
908,661284216,-108.834518,-19.386906,144.299408,5.880098,4.567323,15.164225,141.396942,-53.748051,-86.045731
909,661300883,-106.513542,-19.895958,145.228073,3.009514,7.659811,13.633263,158.197983,-43.223476,-45.071487
910,661317550,-104.572472,-19.782793,146.006073,0.587553,8.310792,9.765406,132.532532,-46.623478,-5.257936
911,661334217,-103.183624,-19.190756,146.871399,-2.096052,8.695086,6.467512,100.891251,-58.541916,22.720509
912,661350884,-101.947495,-18.529980,147.656754,-6.303412,9.515636,2.685256,89.654930,-54.655956,28.986465
913,661367551,-100.266815,-18.308987,148.035812,-11.503682,7.758682,-1.697066,108.293655,-26.242455,8.871624
914,661384218,-97.832329,-18.905684,147.545547,-13.705465,5.336059,-4.939023,136.954651,30.643969,-30.918665
915,661400885,-95.133942,-20.110668,146.502197,-12.366982,5.811287,-8.334995,141.264038,64.267853,-65.081810
916,661417552,-92.611862,-21.525448,145.339569,-14.277895,6.138977,-9.685796,126.796822,68.261932,-80.158333
917,661434219,-90.394951,-22.573841,144.030548,-16.487112,4.031236,-9.691354,103.798950,71.893127,-60.799625
918,661450886,-89.183121,-23.009140,142.970184,-13.676063,1.816249,-11.886246,48.334301,56.021458,-26.119371
919,661467553,-89.199028,-23.021658,142.516678,-9.408515,1.083548,-12.588104,-11.333451,22.499147,-0.859910
920,661484220,-89.576683,-23.020832,142.344971,-8.308620,2.658455,-7.794882,-26.433884,6.945547,0.213207
921,661500887,-89.402802,-23.101120,142.063080,-8.458782,2.338878,-4.854065,4.058393,12.983298,-4.670851
922,661517554,-88.915916,-23.040627,141.992752,-7.047112,0.614913,-6.224191,27.804857,1.397849,3.875090
923,661534221,-88.810173,-22.880968,142.491486,-5.776598,-0.120019,-7.550446,18.255413,-29.894421,10.439535
924,661550888,-88.834770,-22.888247,143.111816,-5.201745,0.157594,-4.999208,13.231316,-36.828735,0.593020
925,661567555,-88.386002,-23.085108,143.417175,-5.188216,0.478764,-2.875671,34.310928,-19.685156,-11.066686
926,661584222,-87.561554,-23.377972,143.457764,-5.445920,0.837474,-1.976079,50.652348,-5.397457,-17.141434
927,661600889,-86.784264,-23.434816,143.617783,-5.288947,0.573728,-1.630186,50.673306,-11.505463,-2.624238
928,661617556,-86.383850,-23.335281,144.157013,-4.895746,0.173545,-3.265677,37.083958,-31.819727,8.085327
929,661634223,-86.435631,-22.963404,145.121033,-4.652864,0.199219,-1.113442,19.851511,-54.214527,25.957705
930,661650890,-86.302582,-22.621559,145.947128,-3.870232,0.586841,0.424528,27.399658,-46.836948,23.728136
931,661667557,-85.648125,-22.310425,146.359970,-4.398794,1.666544,1.622200,48.948544,-24.057438,20.596743
932,661684224,-84.766861,-21.925049,146.569000,-4.301637,2.542164,0.169321,57.812935,-12.173749,24.384823
933,661700891,-84.151413,-21.472168,146.797028,-4.084488,3.043128,-2.502176,42.203064,-12.554213,28.651073
934,661717558,-83.880516,-20.923012,147.167801,-3.054979,2.265083,-1.841148,24.520748,-19.715569,35.314423
935,661734225,-83.509979,-20.397528,147.511307,-2.016312,2.492034,-0.030604,29.730028,-18.224716,33.840187
936,661750892,-82.618149,-19.932890,147.643173,-1.767949,2.755591,1.106829,56.467007,-6.522905,28.954706
937,661767559,-81.275902,-19.520462,147.546875,-1.947568,2.802476,0.750039,78.817116,6.337816,24.123190
938,661784226,-79.922493,-19.119722,147.376862,-1.796866,2.386043,-0.707168,78.065048,10.917883,22.530367
939,661800893,-78.927734,-18.676712,147.300323,-1.264925,1.457905,-1.160379,58.438034,6.644959,25.712162
940,661817560,-78.339180,-18.223764,147.327057,-0.147900,1.043084,-0.806698,36.061466,1.360768,27.321068
941,661834227,-78.026466,-17.730305,147.450897,0.702071,0.974313,-0.484323,21.301556,-3.358917,30.799587
942,661850894,-77.873116,-17.199406,147.629562,0.968860,0.176313,-0.226959,12.663010,-5.853272,33.652023
943,661867561,-77.868271,-16.632624,147.795135,0.649120,-0.651580,0.422176,3.429140,-4.651992,35.601799
944,661884228,-78.149307,-16.051094,147.873856,0.511614,-0.439104,0.417644,-15.287762,0.303813,35.423592
945,661900895,-78.749390,-15.465990,147.883072,1.206417,-0.750289,0.576752,-35.609142,3.996468,34.846725
946,661917562,-79.440971,-14.899850,147.818726,2.218782,-1.080330,2.133263,-42.261642,7.567112,32.987938
947,661934229,-80.015350,-14.364627,147.674896,2.835515,-1.966575,3.529718,-36.400017,11.425477,30.437622
948,661950896,-80.311333,-13.811739,147.465179,3.034158,-3.031352,4.251529,-20.583176,15.166282,30.918207
949,661967563,-80.313393,-13.210577,147.156479,2.724529,-3.661876,4.563727,-4.216706,21.292358,32.830826
950,661984230,-80.136101,-12.513102,146.707809,2.671277,-3.219600,3.901693,4.873631,30.433428,37.079605
951,662000897,-79.952286,-11.672317,146.159760,3.129720,-2.152495,2.304950,4.363528,37.850433,44.413589
952,662017564,-79.968063,-10.759095,145.654541,3.278339,-1.300928,1.281661,-6.621137,36.291569,49.044838
953,662034231,-80.278816,-9.845857,145.285004,2.793356,-1.252880,0.712132,-22.387058,28.345314,50.506554
954,662050898,-80.896889,-8.977850,145.097656,2.303698,-1.629399,-0.383616,-38.700424,16.912018,49.824009
955,662067565,-81.724152,-8.134660,145.088867,2.474681,-1.336191,-1.353199,-49.492294,5.609913,50.183975
956,662084232,-82.554413,-7.358133,145.182053,2.284683,-0.619755,-1.941400,-48.841503,-1.665109,47.156624
957,662100899,-83.206871,-6.664456,145.174561,1.678440,0.525536,-1.816032,-38.980644,3.054420,41.483437
958,662117566,-83.573685,-6.062262,144.926346,1.173110,0.514511,-1.816404,-23.436846,16.311760,34.423599
959,662134233,-83.826263,-5.568518,144.533844,1.065585,-0.277270,-2.616704,-17.316923,23.989063,27.108286
960,662150900,-84.168091,-5.208465,144.120529,0.964388,-1.062514,-3.023931,-22.612696,24.262682,19.134583
961,662167567,-84.619003,-4.985408,143.721558,0.666641,-1.129516,-2.513491,-28.958651,22.483719,11.218824
962,662184234,-85.019356,-4.879866,143.192566,0.207733,-0.426150,-0.944797,-26.527590,29.513630,3.677972
963,662200901,-85.160866,-4.854350,142.395203,0.604532,0.054657,-0.002789,-12.328407,45.072865,-2.327828
964,662217568,-84.949165,-4.852517,141.384506,1.087989,-0.204152,0.477763,7.792546,57.655800,-4.873246
965,662234235,-84.547127,-4.903817,140.299484,1.082008,-0.698737,0.603995,18.808104,61.757862,-8.778449
966,662250902,-84.072624,-5.009101,139.207611,0.541756,-0.928993,1.008522,23.030350,61.767902,-12.535438
967,662267569,-83.544167,-5.101101,138.097275,0.397709,-1.103506,1.393832,26.056435,62.827721,-12.425684
968,662284236,-83.020988,-5.165411,137.010208,0.405842,-1.211868,1.102576,25.773237,61.510262,-11.212767
969,662300903,-82.442802,-5.163986,135.930527,0.502162,-1.284084,0.702207,29.076866,61.450954,-7.860538
970,662317570,-81.830765,-5.112052,134.839127,0.647952,-1.025089,0.841886,31.075190,62.480038,-5.621982
971,662334237,-81.202003,-5.092491,133.753525,0.893385,-1.060377,0.961501,32.147831,61.785057,-8.196883
972,662350904,-80.578636,-5.046720,132.729935,0.814107,-1.037599,0.881630,32.190338,58.280811,-6.762845
973,662367571,-79.958351,-4.965289,131.737823,0.572817,-0.943502,0.766090,32.236809,56.713120,-4.999573
974,662384238,-79.370857,-4.891384,130.782104,0.883034,-1.248091,0.125593,30.537722,54.443241,-5.680758
975,662400905,-78.852295,-4.820511,129.893372,1.028979,-1.025399,-0.116888,26.815548,50.418449,-5.655965
976,662417572,-78.287842,-4.762181,129.017883,1.079353,-0.662930,-0.140333,29.694811,49.441257,-6.740164
977,662434239,-77.612709,-4.686083,128.113983,0.854585,-0.169921,0.355129,36.254536,51.252361,-6.617376
978,662450906,-76.857811,-4.628330,127.197533,0.661764,-0.304416,0.064529,41.047142,51.655613,-8.529866
979,662467573,-76.190613,-4.572630,126.372650,0.529734,-0.799169,-0.467504,36.278885,46.194851,-8.046662
980,662484240,-75.785187,-4.521337,125.738556,0.714252,-0.945531,-0.802429,21.528303,34.978485,-5.998019
981,662500907,-75.617691,-4.473602,125.270905,0.898452,-0.485735,-0.603414,8.068667,25.251900,-3.936605
982,662517574,-75.433594,-4.433855,124.804413,0.830123,0.007801,0.134334,9.091226,25.051601,-4.469261
983,662534241,-75.064056,-4.382924,124.214256,0.609465,0.369953,0.720404,19.671610,32.356400,-5.837932
984,662550908,-74.460693,-4.293025,123.463989,0.486746,0.267717,0.821731,33.018379,42.165150,-6.396952
985,662567575,-73.774673,-4.161599,122.660980,0.505081,-0.255538,0.522044,37.833305,45.812401,-5.368284
986,662584242,-73.159225,-3.996361,121.921471,0.651699,-0.661859,0.113458,33.994141,42.684875,-2.892857
987,662600909,-72.623459,-3.844120,121.287674,0.862471,-0.854627,-0.146339,29.770777,36.383091,-2.234264
988,662617576,-72.075752,-3.648364,120.660057,0.716411,-0.449054,0.223005,30.628099,36.804611,-0.007005
989,662634243,-71.379509,-3.389039,119.950035,0.546761,-0.469397,0.695662,39.384064,42.692253,1.636857
990,662650910,-70.510620,-3.097200,119.164902,0.339345,-0.614301,0.951062,49.694405,47.603386,1.389903
991,662667577,-69.429710,-2.725570,118.242867,0.176292,-0.303144,1.197518,62.268894,56.980900,2.218583
992,662684244,-68.037392,-2.236454,117.110741,0.609623,-0.960972,1.074622,80.820015,71.323624,2.925557
993,662700911,-66.450554,-1.648321,115.859421,0.846179,-0.988862,0.954546,92.886581,80.277084,3.708923
994,662717578,-64.800209,-0.977845,114.503967,1.447378,-1.875381,0.224364,97.378578,88.091393,3.279566
995,662734245,-63.182220,-0.243610,113.226448,1.924264,-2.112737,0.155189,96.485207,85.631073,6.170032
996,662750912,-61.433647,0.530828,111.892479,2.502808,-1.419373,1.007734,105.336372,89.888077,4.133984
997,662767579,-59.437897,1.392376,110.464027,2.865206,-1.380620,1.824548,121.405098,97.466454,2.861689
998,662784246,-57.352989,2.366451,109.100960,3.145483,-2.490723,1.349257,128.005066,97.665123,7.119259
999,662800913,-55.445839,3.372907,108.086952,3.733075,-3.378578,0.992366,117.708450,81.441139,16.847672
1000,662817580,-53.647095,4.359611,107.421638,5.191745,-2.864732,1.598993,110.856339,64.189186,25.294579
1001,662834247,-51.799156,5.347918,107.035599,5.971060,-2.308086,2.521899,113.082367,51.680962,33.371872
1002,662850914,-49.936810,6.372422,106.940308,5.871022,-2.484195,2.522371,112.579430,40.590961,44.257439
1003,662867581,-48.172371,7.409125,107.254311,5.745351,-3.340184,2.559045,103.866432,24.013399,59.401630
1004,662884248,-46.548145,8.424970,108.082436,5.839629,-3.361836,2.751970,90.874413,2.447923,78.328979
1005,662900915,-44.984657,9.469995,109.383789,5.994075,-2.641342,3.023524,81.931061,-14.172327,98.881210
1006,662917582,-43.523144,10.564452,111.133430,5.931172,-2.366066,3.119479,69.699066,-27.763615,120.011177
1007,662934249,-42.271706,11.660448,113.279419,5.546105,-2.948081,2.965403,50.536556,-40.501511,137.456879
1008,662950916,-41.332424,12.645492,115.742035,6.168901,-2.911591,2.123215,25.517643,-54.907207,147.201569
1009,662967583,-40.752983,13.419283,118.481903,7.928889,-3.115862,1.323220,-2.037104,-72.843384,151.404205
1010,662984250,-40.295547,13.780375,121.408592,9.639603,-3.075546,1.463125,-13.577065,-97.139893,143.933670
1011,663000917,-39.601082,13.698514,124.305595,10.134165,-1.460384,1.728434,0.648126,-114.898346,126.401146
1012,663017584,-38.482170,13.300287,126.872253,8.843588,0.068472,2.681450,31.449627,-115.610107,101.361053
1013,663034251,-37.088490,12.628210,128.826447,7.769513,0.412396,3.444321,57.586044,-104.622826,65.700058
1014,663050918,-35.562572,11.501909,129.983139,7.320632,-0.409312,2.286362,77.324066,-97.407120,14.750829
1015,663067585,-34.066319,9.782145,130.326431,6.274149,-1.484841,-0.702462,86.249420,-99.050392,-42.184975
1016,663084252,-32.630470,7.436078,129.866211,5.067359,-1.625384,-3.796957,90.563499,-105.361847,-100.084541
1017,663100919,-31.082903,4.447323,128.630661,3.211935,-1.409671,-6.272330,100.803619,-116.177094,-157.180832
1018,663117586,-29.161922,0.807618,126.680710,-0.220014,-0.479822,-8.361188,120.881439,-133.006165,-210.588028
1019,663134253,-26.692539,-3.384817,124.018356,-6.486102,1.265661,-9.522044,144.795563,-150.193466,-258.822876
1020,663150920,-23.690084,-7.873390,120.718811,-15.776744,4.340683,-9.736636,160.903702,-162.529327,-292.818329
1021,663167587,-20.278580,-12.068642,116.738510,-26.436810,10.622644,-6.876598,163.472626,-147.984253,-312.223785
1022,663184254,-16.435743,-15.052060,111.955185,-29.214115,20.042425,1.747040,163.385391,-84.592209,-321.014648
1023,663200921,-11.629928,-15.832894,106.771805,-16.278997,25.918486,5.325433,205.621231,24.682146,-302.002075
1024,663217588,-5.936029,-14.376606,102.810753,-2.039597,19.548843,-0.318826,279.819672,118.870155,-213.263474
1025,663234255,-0.369151,-12.129859,101.689049,-4.636838,5.092949,-5.468872,318.805786,135.774033,-57.803242
1026,663250922,2.858592,-10.889535,103.127548,-14.633870,-9.686422,-3.753356,211.140259,73.787003,83.164314
1027,663267589,2.220277,-11.311015,105.800812,-16.284712,-9.755898,-2.074266,-7.177672,-20.750992,158.574066
1028,663284256,-0.731416,-12.244823,108.807312,-12.264503,-3.646681,-3.245199,-140.044037,-56.187313,177.539062
1029,663300923,-3.634820,-12.660316,111.553864,-7.045929,2.109365,-2.782137,-138.467163,-33.499573,160.088425
1030,663317590,-5.406454,-12.618176,113.760147,-5.315358,2.431096,-1.425633,-77.155571,-10.109591,129.203125
1031,663334257,-6.419140,-12.427517,115.661293,-6.293467,2.550419,-1.706278,-35.858868,-2.532195,112.180122
1032,663350924,-6.963284,-12.075317,117.596909,-5.818181,-0.169048,-2.696381,-7.839547,5.334859,115.421097
1033,663367591,-7.377075,-11.959195,119.438301,-5.030552,-0.975156,-2.900693,-1.665241,-8.996119,108.325615
1034,663384258,-7.904062,-11.960489,121.320488,-5.666026,0.175639,-2.710027,-8.061194,-17.182966,109.733406
1035,663400925,-8.636848,-11.894994,123.225685,-5.634670,-0.004028,-1.885182,-20.185900,-14.610336,111.495209
1036,663417592,-9.612085,-11.862336,125.092728,-3.963030,-0.331095,-0.614076,-35.299839,-17.853556,108.799461
1037,663434259,-10.891518,-11.975410,126.888443,-3.290307,0.172428,0.016793,-54.357376,-27.838755,102.781792
1038,663450926,-12.570472,-12.137779,128.664246,-3.891266,0.303219,-0.270738,-78.319809,-33.121796,100.297997
1039,663467593,-14.804751,-12.286847,130.497833,-4.383893,-0.775327,-0.295709,-110.617813,-36.530617,102.619736
1040,663484260,-17.436195,-12.354425,132.355850,-3.308539,-0.266032,-0.400804,-133.928299,-36.531860,103.778809
1041,663500927,-20.307190,-12.346202,134.154922,-1.678867,1.290815,-0.763479,-148.998093,-36.038685,100.222954
1042,663517594,-23.222689,-12.295976,135.793549,-0.800275,2.449264,-1.137101,-153.770386,-35.218754,90.613892
1043,663534261,-25.936005,-12.201179,137.307541,-1.511034,2.418267,-0.115863,-143.340195,-34.154575,83.387177
1044,663550928,-28.516090,-11.930779,138.689377,-2.664702,1.147821,1.624842,-137.280350,-25.072227,79.818253
1045,663567595,-31.197166,-11.483833,139.913055,-1.763351,0.354407,1.185714,-145.768967,-14.939067,76.006340
1046,663584262,-34.129044,-11.004879,141.008240,0.092533,0.630742,-1.275840,-162.898056,-13.001813,70.081055
1047,663600929,-37.242672,-10.623960,142.046707,1.018846,0.675158,-1.422263,-174.921371,-19.558310,63.358631
1048,663617596,-40.543880,-10.341731,142.997437,0.386987,-0.723136,1.076546,-187.482544,-24.470242,54.609257
1049,663634263,-43.994228,-10.042800,143.739349,-0.062498,-0.980515,2.525950,-198.931732,-18.634340,44.805607
1050,663650930,-47.494644,-9.602798,144.165573,0.545481,-0.490837,2.574722,-205.451660,-2.072091,36.818962
1051,663667597,-50.878304,-9.005434,144.306717,1.639053,-1.644196,2.599990,-201.438568,14.643451,32.914906
1052,663684264,-54.071747,-8.280367,144.179504,1.498323,-1.999491,3.004767,-192.542007,30.015491,30.228310
1053,663700931,-57.121281,-7.430583,143.730316,1.680013,-1.833867,2.324088,-186.444183,48.359726,27.303507
1054,663717598,-60.162003,-6.574973,143.037552,2.578306,-1.459117,1.413552,-187.301743,59.455986,22.683052
1055,663734265,-63.315266,-5.851711,142.206146,4.237092,-0.698929,0.643452,-194.386292,61.733143,15.046550
1056,663750932,-66.320114,-5.309941,141.373734,5.189987,-1.351650,2.027429,-184.937210,56.305794,8.563488
1057,663767599,-68.940331,-4.908507,140.636978,4.881934,-1.780600,3.368877,-160.941147,47.362808,5.801462
1058,663784266,-71.040276,-4.581503,139.973343,4.475457,-1.846853,3.818306,-129.080887,41.470943,5.131556
1059,663800933,-72.592522,-4.284509,139.372314,4.342509,-1.226214,3.489244,-95.712395,37.182487,5.971612
1060,663817600,-73.657486,-3.970013,138.865433,4.500420,-1.022114,2.471525,-65.875099,31.966173,9.502499
1061,663834267,-74.318504,-3.614105,138.531876,4.558886,-1.383481,1.632125,-40.772018,22.535118,15.259579
1062,663850934,-74.742813,-3.249624,138.423340,4.009852,-1.379127,1.211243,-25.634153,9.548922,19.573978
1063,663867601,-75.023193,-2.932372,138.445618,2.943047,-1.366199,1.087038,-16.533600,1.122998,18.946468
1064,663884268,-75.177040,-2.619255,138.455551,2.290273,-1.281254,0.724508,-8.984693,1.699079,18.524534
1065,663900935,-75.182228,-2.253246,138.359909,2.190025,-1.135762,0.220263,-0.339113,8.599620,19.976070
1066,663917602,-75.076668,-1.835776,138.143768,1.910516,-1.018224,-0.279949,6.090506,16.397144,21.089996
1067,663934269,-74.977737,-1.407989,137.811874,1.831081,-1.072983,-0.764860,5.588153,23.300611,19.855717
1068,663950936,-74.972488,-1.023849,137.424271,1.888208,-1.161168,-0.974107,0.040321,25.871004,16.432375
1069,663967603,-75.017746,-0.707417,136.996780,1.643306,-0.951390,-0.688400,-2.883179,27.125938,11.894992
1070,663984270,-75.029778,-0.419967,136.481201,1.359077,-0.391764,-0.210506,-0.808737,31.777418,8.860612
1071,664000937,-74.964668,-0.123533,135.875214,1.241388,0.097064,0.027802,3.955024,37.160145,7.960230
1072,664017604,-74.870979,0.185448,135.252991,1.143416,0.121955,-0.135880,5.862721,38.306873,8.377172
1073,664034271,-74.865837,0.500164,134.720718,1.217562,-0.247395,-0.560982,0.722941,33.196510,10.082616
1074,664050938,-74.992447,0.784590,134.364883,1.053445,-0.335484,-0.459264,-7.133026,22.486258,11.117212
1075,664067605,-75.193771,1.030272,134.141953,0.747131,-0.167063,-0.012449,-11.640131,14.157006,10.992476
1076,664084272,-75.395859,1.227284,133.980377,0.894355,-0.198861,0.005795,-11.707871,9.813458,9.161768
1077,664100939,-75.567223,1.384906,133.875504,1.317366,-0.438409,-0.323201,-9.911788,5.896617,7.765628
1078,664117606,-75.783073,1.492598,133.882278,1.677026,-0.872646,-0.859226,-12.732172,-1.356104,6.547347
1079,664134273,-76.090736,1.527056,134.047821,1.562830,-1.052917,-0.964131,-18.494001,-11.695971,4.603065
1080,664150940,-76.473923,1.475547,134.316238,1.015431,-0.768318,-0.736324,-23.186211,-18.937717,0.997560
1081,664167607,-76.857460,1.367093,134.586044,0.678431,-0.610396,-0.502760,-23.186726,-19.812035,-2.418384
1082,664184274,-77.246254,1.235195,134.845154,0.548998,-0.601104,-0.360293,-23.453859,-19.484800,-4.049817
1083,664200941,-77.683632,1.095776,135.116486,0.684519,-0.589728,-0.289512,-26.347095,-20.267218,-4.453195
1084,664217608,-78.222458,0.972273,135.454895,0.991091,-0.716471,-0.521821,-32.471226,-23.966232,-2.830181
1085,664234275,-78.931023,0.877703,135.927689,0.934918,-0.642442,-0.462724,-42.746792,-31.491434,0.234711
1086,664250942,-79.827225,0.830645,136.526871,0.510902,-0.422903,-0.203421,-54.083370,-38.412796,4.027448
1087,664267609,-80.819077,0.855605,137.172745,0.197509,-0.355367,0.178764,-59.855885,-40.504517,8.165987
1088,664284276,-81.787720,0.962574,137.795563,0.135137,-0.165873,0.461936,-58.488487,-38.524094,12.171430
1089,664300943,-82.626266,1.146314,138.340927,0.121730,-0.103773,0.643251,-50.692009,-33.477898,15.536884
1090,664317610,-83.336304,1.390229,138.795227,0.149540,-0.059993,0.557924,-42.984444,-27.816961,18.034582
1091,664334277,-83.956474,1.671216,139.183777,0.197684,-0.202032,0.344791,-37.609589,-23.854355,19.514393
1092,664350944,-84.518845,1.990907,139.538300,-0.035809,-0.431224,0.177302,-34.199970,-21.783800,21.399601
1093,664367611,-85.021545,2.350914,139.839859,-0.189480,-0.625226,0.096262,-30.628361,-18.596258,23.340061
1094,664384278,-85.467056,2.742415,140.082809,-0.099441,-0.661698,0.080322,-27.160410,-15.120618,24.799000
1095,664400945,-85.834991,3.128504,140.267456,-0.295671,-1.036933,-0.017951,-22.424925,-11.833285,24.121025
1096,664417612,-86.187088,3.486810,140.368164,-0.708253,-1.273691,-0.053873,-21.261086,-7.078491,22.049351
1097,664434279,-86.497734,3.855065,140.299484,-0.888130,-1.447396,-0.039309,-18.162811,2.959409,21.973703
1098,664450946,-86.749062,4.282431,140.023758,-0.806527,-1.516444,-0.103134,-13.697413,15.427359,24.811785
1099,664467613,-87.013748,4.779926,139.573502,-0.179378,-1.519773,-0.409097,-13.540027,25.962584,28.527426
1100,664484280,-87.413811,5.358451,139.063583,0.995866,-1.512922,-0.729711,-21.096699,29.571676,33.376850
1101,664500947,-88.005173,5.991719,138.618805,2.001296,-1.429499,-0.483079,-32.638443,25.501442,37.087627
1102,664517614,-88.692886,6.642592,138.273239,2.846671,-1.373248,0.174056,-38.777100,19.171841,38.622440
1103,664534281,-89.257004,7.268658,137.948669,3.217422,-1.027115,1.424863,-31.285139,17.445503,37.385857
1104,664550948,-89.578468,7.873262,137.570663,4.043444,-0.638007,2.300652,-16.094723,20.294001,36.213711
1105,664567615,-89.613625,8.468871,137.208862,5.117342,-0.596272,2.614514,1.185689,19.184975,35.744049
1106,664584282,-89.480026,9.059704,137.025528,5.669306,-0.782232,2.754544,9.904922,8.598093,35.515087
1107,664600949,-89.290802,9.670760,137.111191,6.229276,-0.646714,3.112749,10.734615,-7.237612,36.856888
1108,664617616,-88.851791,10.295257,137.419815,6.225470,-0.113523,4.621756,23.353374,-20.185066,37.890499
1109,664634283,-87.790749,10.882243,137.720337,5.336998,0.943972,6.559761,60.577377,-19.248444,35.843777
1110,664650950,-85.879990,11.370402,137.815765,4.325579,0.942106,7.904381,113.773102,-6.561577,29.669701
1111,664667617,-83.165871,11.829727,137.709671,4.797085,0.692804,7.142437,164.364334,6.264013,26.950188
1112,664684284,-79.871452,12.366615,137.624237,5.403347,-0.090553,5.771103,198.983231,7.126632,31.230978
1113,664700951,-76.374237,12.970390,137.741974,5.890825,-0.492914,4.501040,208.531021,-1.879719,36.972305
1114,664717618,-72.876495,13.532980,138.021912,6.749950,-0.826275,4.048922,206.267426,-9.420479,36.978306
1115,664734285,-69.374107,13.936864,138.446472,7.573560,-1.309604,3.999471,204.349243,-18.192539,31.023676
1116,664750952,-65.799492,14.102661,138.895844,8.090288,-0.751149,4.431032,208.203537,-23.029459,19.250990
1117,664767619,-62.167107,13.941245,139.218124,8.732128,0.308579,4.036686,213.523453,-23.760965,-0.403453
1118,664784286,-58.511364,13.342749,139.245300,10.129935,0.924686,3.005407,219.231766,-21.823658,-30.356623
1119,664800953,-54.854561,12.149600,139.037506,12.851348,1.531391,1.138055,222.435303,-31.856754,-66.450584
1120,664817620,-50.945518,10.160218,138.654282,14.140098,2.682804,-2.661882,239.269104,-56.732857,-108.770935
1121,664834287,-46.617710,7.228821,138.172760,11.610751,1.766142,-6.776510,264.302277,-97.177803,-151.097733
1122,664850954,-41.912994,3.178046,137.552765,6.386132,1.610466,-10.482376,285.882080,-150.990829,-196.170990
1123,664867621,-36.960220,-2.058174,136.531235,-2.226954,1.330549,-15.827423,297.910187,-206.528580,-246.924484
1124,664884288,-32.084549,-8.054294,134.922287,-13.374785,1.962170,-19.374231,284.106873,-244.703598,-283.135864
1125,664900955,-27.264109,-14.152444,132.156174,-24.521210,5.533678,-14.474037,257.280731,-239.966049,-322.635132
1126,664917622,-20.715387,-18.482367,127.087120,-31.542427,12.430819,-0.002135,307.376648,-121.212990,-372.255280
1127,664934289,-11.230701,-18.970480,120.480263,-23.399364,17.955187,14.592600,441.570221,72.630775,-369.023651
1128,664950956,-1.523598,-15.967957,115.247337,-8.351987,19.378786,2.270965,487.974792,209.822647,-277.695496
1129,664967623,5.282627,-12.247900,113.182007,-10.414960,-7.751529,-15.027531,378.303680,216.748154,-127.315559
1130,664984290,6.930779,-12.039146,113.448792,-13.067060,-25.062746,-6.033772,102.547745,11.647288,14.429779
1131,665000957,3.873374,-15.393886,113.716942,-15.567105,-12.852262,0.358551,-179.345703,-201.436127,34.735569
1132,665017624,-0.289877,-17.985022,116.528999,-12.454597,14.979675,1.713075,-201.068726,-152.825058,166.662064
