sep=,
DeviceTag:,DOT5
FirmwareVersion:,3.0.0
AppVersion:,2023.6.0
SyncStatus:,Synced
OutputRate:,60Hz
FilterProfile:,Dynamic
Measurement Mode:,Custom modes - custom mode1
StartTime: ,2026-06-01_12:04:20_776 GMT+2
© Movella Technologies B. V. 2005-2026

PacketCounter,SampleTimeFine,Euler_X,Euler_Y,Euler_Z,FreeAcc_X,FreeAcc_Y,FreeAcc_Z,Gyr_X,Gyr_Y,Gyr_Z
1,282009195,-66.983681,13.664330,-133.655731,-0.021990,-0.169004,-0.047318,2.518043,-2.961584,0.710003
2,282025862,-66.934303,13.663779,-133.656845,-0.065783,-0.174332,-0.059774,3.236273,-2.581811,0.638211
3,282042529,-66.876503,13.656811,-133.666367,-0.047383,-0.159183,-0.131549,3.860980,-2.282168,0.092455
4,282059196,-66.829010,13.644930,-133.675262,-0.106141,-0.090717,-0.092237,3.232483,-2.429685,-0.165138
5,282075863,-66.788200,13.632426,-133.689423,-0.150447,-0.114771,-0.046115,2.905114,-2.163441,-0.322221
6,282092530,-66.749550,13.626416,-133.704895,-0.121015,-0.041230,-0.136920,2.796529,-1.938894,0.006025
7,282109197,-66.724739,13.609648,-133.719803,-0.203520,-0.038117,-0.088259,1.956471,-2.226256,-0.573929
8,282125864,-66.706726,13.582225,-133.725204,-0.289251,-0.120707,-0.068597,1.413520,-2.988464,-0.942586
9,282142531,-66.688950,13.558216,-133.718964,-0.192479,-0.017345,-0.155620,1.237446,-3.532030,-0.485271
10,282159198,-66.685898,13.534031,-133.696487,-0.208105,0.027618,-0.139532,0.126559,-4.405090,-0.120879
11,282175865,-66.695007,13.493312,-133.664276,-0.187887,-0.053939,-0.091403,-0.740732,-5.318132,-0.807901
12,282192532,-66.697395,13.452473,-133.632248,-0.164241,-0.106390,-0.050737,-0.331313,-5.313303,-0.817698
13,282209199,-66.683739,13.424160,-133.600601,-0.189914,-0.158078,0.082855,0.637289,-4.994105,-0.136733
14,282225866,-66.666519,13.410613,-133.578903,-0.151439,-0.136680,-0.001266,0.991218,-4.112016,0.447665
15,282242533,-66.667412,13.401582,-133.559525,-0.147536,-0.096706,-0.025198,-0.062380,-3.879671,0.642860
16,282259200,-66.682159,13.394876,-133.539810,-0.130822,-0.118763,0.010484,-0.899928,-3.842623,0.778530
17,282275867,-66.691505,13.391636,-133.521194,-0.056780,-0.194481,0.098560,-0.558383,-3.698961,0.942618
18,282292534,-66.684036,13.396855,-133.510086,-0.052516,-0.255307,0.026403,0.553855,-3.096473,1.235192
19,282309201,-66.660522,13.406285,-133.509079,-0.018208,-0.228594,0.033728,1.655752,-2.454350,1.234052
20,282325868,-66.609566,13.417150,-133.519089,-0.112197,-0.217809,0.068619,3.455224,-1.830527,1.056876
21,282342535,-66.500023,13.442586,-133.536850,-0.164142,-0.207008,0.078900,7.079869,-1.064477,1.677920
22,282359202,-66.382683,13.474923,-133.559036,-0.052507,-0.198308,0.049163,7.609195,-0.660526,1.951835
23,282375869,-66.296700,13.495136,-133.575806,0.012128,-0.194604,-0.035782,5.651578,-1.238413,1.407668
24,282392536,-66.247139,13.500706,-133.578445,-0.058261,-0.220336,0.058161,3.268564,-2.345022,0.932904
25,282409203,-66.222267,13.496413,-133.573929,-0.120987,-0.236009,0.043085,1.686090,-2.964798,0.559208
26,282425870,-66.197014,13.503522,-133.575241,-0.063118,-0.244808,0.113194,1.792153,-2.376987,1.047873
27,282442537,-66.160500,13.507853,-133.576599,-0.175203,-0.207302,0.099678,2.466945,-2.441454,0.894184
28,282459204,-66.106995,13.510530,-133.584122,-0.242687,-0.118068,0.032945,3.571364,-2.153977,0.659111
29,282475871,-66.034431,13.525920,-133.589005,-0.238542,-0.075782,0.011766,4.679294,-1.984190,1.417682
30,282492538,-65.975212,13.548787,-133.587616,-0.114740,-0.089548,-0.056710,3.790059,-2.136138,1.975783
31,282509205,-65.942368,13.571736,-133.579361,-0.111488,-0.054012,-0.034119,2.112721,-2.497981,2.142406
32,282525872,-65.911499,13.586101,-133.570190,-0.168007,-0.040679,-0.012873,1.979753,-2.755978,1.693416
33,282542539,-65.869339,13.597049,-133.555588,-0.226539,-0.007556,-0.035505,2.581882,-3.127093,1.635326
34,282559206,-65.810860,13.612898,-133.537689,-0.242593,0.017503,-0.052816,3.512711,-3.181763,1.983275
35,282575873,-65.738609,13.636260,-133.513229,-0.306630,0.020282,-0.021205,4.249192,-3.343354,2.551672
36,282592540,-65.670761,13.667998,-133.485825,-0.341350,0.019463,0.005927,3.941571,-3.289337,3.080587
37,282609207,-65.601006,13.711761,-133.446991,-0.511348,0.041054,0.192943,3.893329,-3.598072,4.015002
38,282625874,-65.479126,13.781161,-133.397385,-0.713463,0.030619,0.353930,6.865250,-3.527024,5.676486
39,282642541,-65.275230,13.892822,-133.343246,-0.768089,0.027488,0.291965,11.719797,-2.694189,8.095599
40,282659208,-65.018044,14.038267,-133.279633,-0.686717,-0.019289,0.128469,14.772121,-2.313790,10.168913
41,282675875,-64.775352,14.193729,-133.200500,-0.408693,-0.164684,-0.067801,13.666702,-2.833600,11.095107
42,282692542,-64.594070,14.342544,-133.114258,-0.097987,-0.332816,-0.227213,9.865808,-3.333662,10.911320
43,282709209,-64.494080,14.466213,-133.028198,0.083908,-0.402575,-0.257258,4.975468,-3.945843,9.544993
44,282725876,-64.464867,14.561719,-132.950439,0.142169,-0.398454,-0.309131,0.846058,-4.226570,7.812074
45,282742543,-64.471123,14.627709,-132.886139,0.087140,-0.345445,-0.188745,-1.086990,-4.280613,5.876866
46,282759210,-64.461510,14.661161,-132.837585,0.066948,-0.389653,-0.110268,0.100229,-4.294546,3.720201
47,282775877,-64.426689,14.671486,-132.803070,0.133087,-0.423260,-0.114074,1.824015,-4.156595,2.116935
48,282792544,-64.386620,14.668048,-132.784225,0.112811,-0.447119,0.036922,2.376058,-3.690701,0.979667
49,282809211,-64.324684,14.657323,-132.782974,-0.007814,-0.496691,0.241247,3.954415,-2.955539,0.142541
50,282825878,-64.226158,14.647300,-132.796371,-0.140165,-0.502645,0.324224,6.373151,-2.171137,-0.188471
51,282842545,-64.104103,14.637177,-132.806732,-0.242776,-0.536775,0.367972,7.734570,-2.334060,-0.116551
52,282859212,-63.973534,14.629850,-132.801437,-0.259039,-0.521763,0.303518,8.012019,-3.078084,0.433258
53,282875879,-63.844704,14.635406,-132.781448,-0.310823,-0.454117,0.387152,7.681488,-3.505047,1.502934
54,282892546,-63.711254,14.643850,-132.756500,-0.235524,-0.421871,0.354041,7.881816,-3.683709,1.788862
55,282909213,-63.596767,14.651583,-132.722900,-0.254606,-0.311652,0.300128,6.613091,-4.148195,1.976206
56,282925880,-63.494171,14.650149,-132.666061,-0.364038,-0.332067,0.329656,5.547935,-5.599782,2.089209
57,282942547,-63.374477,14.651980,-132.581482,-0.358842,-0.295472,0.277672,6.153063,-6.949445,2.990098
58,282959214,-63.264252,14.667656,-132.473999,-0.344566,-0.147211,0.250637,5.236166,-7.759921,4.340580
59,282975881,-63.174736,14.686056,-132.336609,-0.231460,0.014381,0.145810,3.537570,-9.228554,5.277505
60,282992548,-63.167023,14.714661,-132.163406,0.025195,0.247216,0.019753,-1.918418,-10.803801,6.766603
61,283009215,-63.305649,14.742456,-131.948227,0.340704,0.539985,-0.022791,-11.343033,-13.004300,7.809123
62,283025882,-63.612614,14.767211,-131.678894,0.764277,0.911710,0.023910,-22.275723,-15.926278,9.005625
63,283042549,-64.082504,14.809524,-131.326965,1.162968,1.495631,0.229860,-33.324028,-19.815275,11.965150
64,283059216,-64.750092,14.913276,-130.837708,1.772106,2.293305,0.356082,-47.321251,-25.510818,18.546614
65,283075883,-65.631050,15.158461,-130.113876,2.727645,3.585780,0.532898,-63.858589,-34.508385,31.619852
66,283092550,-66.544205,15.647631,-129.087967,3.628474,5.209082,1.326427,-70.868637,-44.964458,51.535709
67,283109217,-67.132629,16.495831,-127.685043,3.556268,6.847627,2.188653,-58.333580,-56.956482,79.229980
68,283125884,-67.068794,17.769875,-125.888367,3.279107,8.080134,2.464861,-27.649044,-67.762794,111.097519
69,283142551,-66.414169,19.454863,-123.687088,3.263493,8.568480,2.234709,-2.599752,-77.692078,142.874863
70,283159218,-65.265274,21.421339,-121.144814,3.157739,8.270797,2.264825,15.942176,-84.745697,166.684769
71,283175885,-63.685352,23.530691,-118.330978,2.935933,7.583168,2.325681,30.517939,-88.877739,181.931915
72,283192552,-61.944714,25.606024,-115.326752,3.083484,7.351524,2.108238,29.756607,-91.576645,186.135391
73,283209219,-60.424648,27.406540,-112.256210,3.396259,7.341650,1.968627,9.252999,-95.020821,174.568237
74,283225886,-59.393188,28.745237,-109.277008,2.965988,7.157466,2.065321,-21.955462,-98.824318,149.003098
75,283242553,-58.943031,29.531494,-106.563011,2.032711,7.421203,1.974905,-51.987587,-100.583908,113.822304
76,283259220,-58.891682,29.694288,-104.249413,0.653045,7.470378,1.643464,-65.215256,-100.948074,71.074966
77,283275887,-58.806938,29.236280,-102.488831,-1.055630,6.794981,1.037594,-46.581078,-95.566505,24.445572
78,283292554,-58.334728,28.217693,-101.396080,-2.331442,5.347455,-0.141500,-2.885065,-83.584396,-21.789385
79,283309221,-57.437836,26.659359,-101.048737,-2.489796,4.037989,-1.617579,44.507580,-68.043472,-68.987686
80,283325888,-56.127098,24.516491,-101.447937,-2.232089,2.363251,-3.301092,89.286369,-55.052174,-119.024780
81,283342555,-54.262329,21.767725,-102.545082,-2.103726,0.035212,-4.596332,138.050323,-47.135101,-169.596222
82,283359222,-51.611015,18.531319,-104.338043,-2.144947,-3.094108,-5.396362,196.411484,-39.139973,-215.447235
83,283375889,-47.942417,14.966331,-106.795395,-2.563544,-6.265459,-6.269266,262.843323,-33.011124,-254.119247
84,283392556,-43.171604,11.228582,-109.883446,-2.969120,-9.672468,-6.946209,328.419250,-30.845043,-286.107941
85,283409223,-37.489639,7.590037,-113.704300,-2.880248,-14.193252,-6.513618,378.517700,-22.662786,-313.341370
86,283425890,-31.719873,4.430404,-117.744675,-2.899713,-19.137156,-3.471519,371.694092,-21.705029,-305.691925
87,283442557,-27.266174,2.006552,-121.347588,-4.616227,-22.651421,0.391398,279.573059,-22.888544,-258.950775
88,283459224,-25.641691,0.423062,-123.739273,-5.509852,-19.961447,2.408431,100.815147,-23.686954,-170.165939
89,283475891,-26.893286,-0.371539,-124.530525,-4.074599,-12.855441,2.456396,-74.762627,-24.252340,-63.027000
90,283492558,-29.593260,-0.274226,-123.522728,-3.398120,-8.063083,2.498262,-161.351837,-25.962744,56.707226
91,283509225,-32.202026,0.682039,-120.988663,-5.254028,-8.097810,3.173662,-156.737198,-31.336727,160.628693
92,283525892,-34.124821,2.492903,-117.467018,-6.655460,-10.775748,2.697115,-120.867081,-27.104465,236.969406
93,283542559,-35.203045,4.940032,-113.431702,-6.415236,-13.638510,1.105335,-80.035797,-19.188889,282.977509
94,283559226,-35.527763,7.780087,-109.032616,-5.233510,-15.356216,-1.048743,-48.387581,-15.415867,313.314545
95,283575893,-35.209938,10.799112,-104.467194,-2.903526,-14.636096,-2.354435,-24.836624,-11.311842,326.090912
96,283592560,-34.635735,13.761128,-100.017128,-0.426492,-11.633733,-2.352385,-22.030067,-6.157993,316.484467
97,283609227,-34.027134,16.435930,-95.938927,1.341434,-8.518867,-2.215029,-26.904606,-3.189071,286.451752
98,283625894,-33.599705,18.828588,-92.297325,1.719773,-6.732553,-1.048685,-40.206367,0.948063,253.762161
99,283642561,-33.493912,20.938410,-89.148537,1.790946,-5.109676,0.049055,-57.559994,4.897424,218.900772
100,283659228,-33.647125,22.771608,-86.640892,1.770636,-2.910825,0.754020,-64.845795,12.018281,178.058929
101,283675895,-34.040760,24.390167,-84.845444,0.768980,-0.848753,0.938394,-66.352295,23.271435,136.976761
102,283692562,-34.703621,25.834459,-83.875198,-0.109914,0.573593,0.723458,-64.114052,39.367550,93.320114
103,283709229,-35.700359,27.172089,-83.824425,-0.349893,2.255117,0.912668,-60.804611,61.599476,49.387997
104,283725896,-37.234699,28.348976,-84.791924,-0.133765,4.830473,1.384241,-64.667351,84.894218,1.552045
105,283742563,-39.726398,29.117895,-86.864326,0.833765,7.564835,1.669016,-89.372566,101.515877,-55.760387
106,283759230,-43.153763,29.361259,-90.015221,1.663537,9.315372,1.147926,-112.932930,117.658630,-113.125565
107,283775897,-47.008133,29.294102,-93.832993,0.995862,10.404857,-0.114149,-118.693359,136.078094,-143.004730
108,283792564,-50.718620,29.207235,-97.619881,0.394501,12.237560,-1.680590,-111.253151,143.358017,-133.496750
109,283809231,-53.545326,29.253086,-100.832893,1.088926,14.308395,-0.293409,-75.149223,131.944550,-100.277496
110,283825898,-55.322594,29.278818,-103.302048,2.825525,14.669307,1.646928,-33.920597,103.447937,-73.124931
111,283842565,-55.881325,29.352257,-104.983864,4.303961,13.334464,0.522344,16.160322,72.494011,-45.319447
112,283859232,-55.259487,29.673443,-105.811623,5.716821,12.539698,-0.503324,62.052872,43.942875,-7.829975
113,283875899,-53.949913,30.155094,-105.751381,6.544852,11.597663,-0.756173,77.047012,11.579616,26.046432
114,283892566,-52.376163,30.672529,-104.896629,5.830105,10.682521,-0.508257,68.737122,-19.389959,51.996265
115,283909233,-50.684956,31.240753,-103.389626,4.502881,9.986988,0.181270,55.234039,-42.108612,75.523758
116,283925900,-48.864395,31.852867,-101.353127,3.741213,9.441102,0.528790,45.574753,-58.405056,95.851288
117,283942567,-47.020191,32.532837,-99.101639,3.737825,9.282658,0.901961,38.948666,-60.174534,107.401329
118,283959234,-45.472717,33.514236,-96.830513,3.347094,9.087147,1.837342,18.851688,-44.443775,122.047447
119,283975901,-44.170906,34.577766,-94.624702,2.997669,9.251492,2.756298,4.277511,-34.689030,123.239334
120,283992568,-43.322632,35.408943,-92.730270,2.406190,9.024783,2.904122,-14.022656,-31.019478,102.207146
121,284009235,-42.857033,35.866547,-91.310966,0.910388,8.698098,2.627819,-21.415731,-29.897049,69.733101
122,284025902,-42.701305,35.866520,-90.486458,-0.316031,7.984980,1.570388,-19.374403,-29.910955,29.843473
123,284042569,-42.943420,35.384869,-90.286232,-1.177621,7.359391,0.390765,-21.259207,-30.533066,-12.075622
124,284059236,-43.654106,34.310543,-90.700714,-1.501776,6.831634,-0.584048,-28.162016,-35.632526,-58.660110
125,284075903,-44.533867,32.585712,-91.675415,-2.170578,5.130574,-1.771085,-20.274101,-43.104198,-106.661903
126,284092570,-44.980457,30.232063,-93.140457,-2.864092,3.074307,-2.952753,19.302114,-50.195351,-152.308731
127,284109237,-44.530472,27.341990,-95.108620,-3.404873,1.240787,-4.244617,84.153992,-53.011463,-195.178482
128,284125904,-42.938633,23.943071,-97.528412,-3.114702,-1.397379,-4.881763,158.616821,-59.609875,-235.144455
129,284142571,-40.165146,20.123081,-100.426636,-2.016492,-5.006172,-4.728568,231.886368,-67.332138,-272.246460
130,284159238,-36.188946,16.054035,-103.840324,-0.949380,-8.852446,-3.675631,302.352234,-74.280083,-303.557312
131,284175905,-30.800339,11.908730,-107.675903,-0.760039,-12.138272,-2.987648,379.022583,-86.844612,-323.130920
132,284192572,-24.021206,7.931150,-111.655739,-1.014991,-16.751377,-1.234541,447.918762,-106.231071,-318.360107
133,284209239,-17.458414,4.455007,-115.199203,-2.856586,-22.128525,2.113849,416.803223,-122.839081,-271.138397
134,284225906,-13.347178,1.863075,-118.129158,-3.459610,-23.729420,4.995447,256.594727,-105.872124,-210.004120
135,284242573,-12.724992,0.396451,-120.164192,-1.951413,-17.964764,4.807752,40.041546,-60.702446,-138.188309
136,284259240,-14.388784,-0.130658,-120.735764,-1.127105,-10.144273,4.153406,-99.457390,-25.189873,-40.154217
137,284275907,-16.630125,0.196615,-119.571587,-2.771001,-6.435532,4.064741,-134.236404,-2.224954,73.163170
138,284292574,-18.647728,1.295311,-117.052452,-3.731838,-8.541997,3.980315,-122.721916,14.553397,164.624969
139,284309241,-20.486088,3.043469,-113.680275,-4.108022,-10.909923,2.997780,-117.638771,28.636774,226.268799
140,284325908,-21.919817,5.250540,-109.799957,-4.428182,-12.264107,1.292774,-102.532890,36.983864,265.028595
141,284342575,-22.658354,7.737030,-105.604683,-3.780044,-12.477502,-0.518834,-72.465637,40.689495,288.649384
142,284359242,-22.612865,10.395281,-101.270164,-3.041424,-12.031116,-1.673591,-37.959320,45.872051,299.085419
143,284375909,-21.951452,13.088198,-96.950180,-2.353980,-10.857221,-2.043812,-12.788161,50.803127,296.754395
144,284392576,-21.209045,15.568388,-92.790009,-0.431126,-8.928852,-1.991032,-16.945217,46.965862,280.298401
145,284409243,-20.749338,17.763628,-88.890831,1.374462,-6.310061,-1.937741,-39.208534,40.298252,257.096741
146,284425910,-20.565884,19.571648,-85.315010,1.734439,-2.933703,-1.321061,-57.346836,27.373501,229.133606
147,284442577,-20.661472,20.946350,-82.241043,1.241077,-1.359835,-1.155848,-69.269608,13.868299,191.654724
148,284459244,-21.092545,21.951141,-79.824081,0.936406,-0.742581,-1.098223,-78.558205,5.815269,148.260834
149,284475911,-22.014908,22.784647,-78.118935,0.842943,0.039816,-0.835606,-93.938156,9.335584,107.027634
150,284492578,-23.506025,23.711897,-77.109070,0.485317,1.414796,-0.348020,-113.048836,27.336763,73.516754
151,284509245,-25.310295,24.868561,-76.815071,-0.969180,3.393400,0.786010,-115.181114,54.113297,43.969379
152,284525912,-27.661434,25.971834,-77.431320,-1.128592,5.249805,1.641851,-124.868294,71.686874,0.276759
153,284542579,-31.328241,26.870035,-79.015266,0.670360,7.157736,2.178292,-177.387756,86.338799,-46.908413
154,284559246,-37.215927,27.684475,-81.413841,4.649151,9.585559,1.756132,-286.949036,109.936028,-77.570869
155,284575913,-43.895180,28.371969,-84.391129,2.693336,11.006435,-0.736745,-316.438751,131.385773,-92.404732
156,284592580,-49.591232,29.377621,-87.192017,-3.577052,9.729041,-2.566261,-260.262024,146.013641,-56.322033
157,284609247,-53.291374,30.772728,-89.561165,-2.774056,12.930335,-1.261847,-150.454391,145.809906,-10.637887
158,284625914,-55.337830,31.995783,-91.357346,3.460732,15.125885,-0.544760,-66.368767,114.953972,6.505588
159,284642581,-56.429306,32.743252,-92.564896,8.289443,14.146607,-0.598516,-26.420630,73.228218,3.356584
160,284659248,-56.887108,33.065800,-93.256233,7.189258,11.736158,1.075828,-4.664378,37.145164,-2.449316
161,284675915,-56.494625,33.199039,-93.409630,4.360049,10.507829,1.699057,28.844761,8.249845,2.949215
162,284692582,-55.324875,33.288975,-92.981400,3.068989,10.328183,1.180138,56.361473,-17.354345,16.998482
163,284709249,-53.903133,33.328789,-92.027641,3.399646,9.916482,0.517311,54.138222,-40.192345,30.114380
164,284725916,-52.648422,33.339340,-90.813324,3.748118,9.071900,0.439287,35.503166,-51.001045,37.368626
165,284742583,-51.678768,33.429386,-89.546913,3.407029,7.963145,1.238568,16.622742,-49.383541,43.638153
166,284759250,-50.817551,33.567993,-88.292213,2.672218,7.220253,1.992007,10.375512,-46.343193,46.225239
167,284775917,-49.985996,33.668892,-87.204117,1.601825,6.610814,2.424731,13.999179,-40.623123,39.757076
168,284792584,-49.110882,33.664204,-86.421661,1.018592,6.290249,2.282155,26.730659,-32.508961,25.573030
169,284809251,-48.300907,33.498005,-86.108467,1.050186,6.208130,1.577068,38.452370,-20.939997,3.276392
170,284825918,-47.734985,33.051659,-86.324966,0.708532,6.441940,0.820629,41.329830,-12.439996,-26.736664
171,284842585,-47.384113,32.184086,-87.063148,0.283407,5.754642,-0.371196,45.173538,-10.199248,-63.153427
172,284859252,-47.053581,30.854553,-88.271065,-0.236538,4.712221,-1.425415,57.968460,-11.440278,-100.073830
173,284875919,-46.415394,29.011868,-89.912254,-0.756430,3.586267,-2.340510,87.674271,-16.238661,-138.555923
174,284892586,-45.259270,26.620707,-91.994194,-1.137620,2.360578,-3.120239,127.899826,-23.297016,-179.446823
175,284909253,-43.320076,23.713795,-94.561058,-1.351453,0.305553,-3.851084,182.068710,-30.102301,-221.130280
176,284925920,-40.253944,20.401054,-97.710426,-1.117356,-1.744038,-4.422620,255.108414,-34.074127,-262.609192
177,284942587,-35.818333,16.796181,-101.362343,-0.258729,-4.231527,-4.873672,336.126129,-44.953522,-296.456482
178,284959254,-30.630363,12.999115,-105.428650,1.704098,-8.170789,-4.414297,374.044098,-63.935024,-321.715485
179,284975921,-25.642262,9.026849,-109.817337,2.802202,-13.342399,-2.795120,349.604858,-90.797760,-339.960297
180,284992588,-21.464417,5.157076,-114.400307,0.915454,-19.317471,0.816779,284.663208,-106.285614,-342.520782
181,285009255,-18.642143,1.783396,-118.786621,-2.990776,-22.055532,3.509854,185.394852,-102.551819,-315.715973
182,285025922,-17.444197,-0.784723,-122.473000,-6.250588,-19.285774,4.743160,74.019119,-80.505775,-257.522095
183,285042589,-17.842722,-2.437113,-124.936104,-6.484908,-12.952783,4.222583,-27.812241,-52.229446,-170.315216
184,285059256,-19.031492,-3.073324,-125.618820,-5.862663,-6.245652,3.704151,-73.045883,-25.805454,-50.366940
185,285075923,-19.879932,-2.858447,-124.509430,-4.306994,-4.237258,2.575104,-47.210789,-12.512712,67.499428
186,285092590,-20.607422,-2.027474,-122.077637,-3.119364,-7.572074,2.982725,-37.169903,-6.194434,154.550735
187,285109257,-21.922665,-0.775853,-118.895508,-3.032540,-9.848875,3.005331,-73.966599,-1.780036,205.641312
188,285125924,-23.712894,0.794589,-115.292267,-4.261039,-11.074946,1.800155,-107.152191,0.467408,236.354141
189,285142591,-25.591139,2.542947,-111.404327,-5.042798,-12.116739,0.188470,-119.178238,-4.468010,256.226471
190,285159258,-27.334541,4.483041,-107.324959,-4.653364,-12.605785,-0.143620,-119.287209,-7.208017,271.125122
191,285175925,-29.085371,6.556942,-103.249023,-3.120530,-11.491823,-0.126968,-128.253586,-7.963675,273.885986
192,285192592,-31.093002,8.569343,-99.392998,-1.460381,-8.786017,-0.309307,-150.582779,-13.049491,259.543884
193,285209259,-33.240768,10.424821,-95.817139,-1.486309,-6.367414,-0.534361,-163.941177,-20.948048,238.972824
194,285225926,-35.157021,12.142019,-92.565193,-1.884219,-4.865962,-0.336379,-152.836365,-24.854479,216.744843
195,285242593,-36.700207,13.731666,-89.728096,-1.785882,-3.370327,0.060789,-130.394608,-22.633545,190.880020
196,285259260,-37.867588,15.273859,-87.357071,-1.662669,-1.634911,0.647079,-105.371994,-12.324906,166.210327
197,285275927,-38.430912,17.001341,-85.422661,-2.487531,0.095683,1.462433,-65.766182,10.125501,152.273300
198,285292594,-38.254005,19.099989,-83.999435,-2.475625,1.385490,1.311258,-15.560263,45.874119,142.366226
199,285309261,-37.757790,21.365240,-83.207802,-1.202742,3.027440,0.273939,13.630028,77.130745,119.381828
200,285325928,-37.658489,23.570595,-83.113197,0.388428,4.896166,-0.587483,4.076398,98.954163,85.654610
201,285342595,-38.266754,25.507547,-83.733780,1.612666,7.373423,-0.343728,-20.740192,109.937508,45.351044
202,285359262,-39.619617,27.213564,-85.031502,2.783231,9.373271,0.004076,-46.305336,120.931984,10.635276
203,285375929,-41.592735,28.758068,-86.834526,4.208479,11.607796,-0.845387,-67.325630,129.992279,-11.663590
204,285392596,-43.605396,30.074945,-88.851349,3.519527,13.026560,-1.238700,-61.033459,126.960579,-23.569006
205,285409263,-44.949516,31.019495,-90.721657,2.324786,14.253550,-1.157573,-23.334494,105.489555,-29.089907
206,285425930,-45.433807,31.543272,-92.137207,5.807515,14.424803,-1.710199,15.313720,71.087044,-28.326460
207,285442597,-45.471344,31.574268,-93.051628,8.434864,13.368408,-1.327165,26.729427,32.061096,-30.945490
208,285459264,-45.334290,31.160070,-93.545341,7.939883,11.021187,-0.452309,23.906450,-2.001044,-34.945793
209,285475931,-44.914619,30.540188,-93.617432,5.989163,9.570724,-0.170856,27.657932,-26.176937,-28.474136
210,285492598,-44.187992,30.020433,-93.345215,4.791563,8.670648,-0.393070,35.619606,-34.686806,-11.330688
211,285509265,-43.402035,29.487020,-93.079727,4.969092,8.372486,-0.801030,39.507439,-35.243076,-11.679832
212,285525932,-42.915932,29.244627,-92.527435,4.351494,7.835819,-0.446933,13.168789,-32.936993,11.600964
213,285542599,-42.488224,29.165529,-91.834412,3.552396,7.707591,0.511325,5.625905,-30.675714,23.931349
214,285559266,-42.303951,29.046780,-91.153564,2.686764,7.195618,0.754376,-8.564139,-31.903625,22.026398
215,285575933,-42.267735,28.908791,-90.674782,1.943284,6.893634,0.914424,-11.494161,-25.612085,13.492335
216,285592600,-42.225994,28.784698,-90.426666,1.186828,6.491148,0.768983,-4.428838,-16.859798,5.114113
217,285609267,-42.256500,28.604286,-90.487350,0.847241,6.530761,0.343675,0.166323,-8.451709,-9.176650
218,285625934,-42.331684,28.259886,-90.886070,0.268939,6.454412,-0.012070,7.127711,-3.714660,-29.002277
219,285642601,-42.339340,27.626934,-91.651413,-0.245910,5.906348,-0.493961,21.308653,-3.344689,-55.099861
220,285659268,-42.220894,26.621580,-92.818077,-0.459372,5.173153,-0.963306,39.270542,-5.310744,-86.209496
221,285675935,-41.881580,25.156254,-94.412766,-0.675374,4.578796,-1.346592,62.387039,-10.222147,-122.338692
222,285692602,-41.155239,23.177341,-96.450737,-0.689338,3.329748,-2.033536,93.888176,-17.542336,-161.768814
223,285709269,-39.866844,20.698151,-98.996727,-0.423614,1.728102,-2.715913,134.611191,-23.627920,-203.890930
224,285725936,-37.838745,17.771463,-102.052551,-0.202176,-0.625903,-3.097749,182.302048,-30.719753,-244.513474
225,285742603,-35.146999,14.410092,-105.630241,0.636068,-3.787584,-3.528149,221.176193,-42.019073,-285.309143
226,285759270,-32.207756,10.623962,-109.706566,1.285592,-8.312401,-3.179986,229.499908,-59.157745,-324.214478
227,285775937,-29.381737,6.547992,-114.225945,-0.068259,-13.757710,-1.685769,210.161011,-75.280991,-355.069122
228,285792604,-26.751783,2.519452,-119.014503,-3.444919,-19.373545,1.928805,180.620956,-80.977493,-365.988800
229,285809271,-24.502146,-0.963970,-123.691063,-8.122732,-22.090456,4.603862,138.933304,-69.557259,-342.875061
230,285825938,-23.205740,-3.521071,-127.597481,-9.833452,-19.024363,5.089428,68.830009,-48.108921,-275.735931
231,285842605,-23.379589,-4.840817,-129.908722,-8.643740,-11.105106,4.717681,-20.279287,-20.583183,-157.825684
232,285859272,-24.451155,-5.008379,-130.013290,-6.511346,-3.134492,2.785161,-64.572784,-9.200455,-9.270518
233,285875939,-25.115940,-4.489490,-128.138321,-1.360898,-3.629802,1.225619,-30.306564,-21.273895,115.359161
234,285892606,-26.138670,-3.542974,-125.206345,-0.704600,-7.237687,3.200067,-48.764702,-27.248354,183.309586
235,285909273,-27.761511,-2.201999,-122.007126,-2.596053,-8.938124,3.507642,-87.460236,-17.721384,207.882568
236,285925940,-29.173927,-0.444145,-118.613152,-4.283576,-9.805233,2.001063,-79.751289,-6.884388,229.768555
237,285942607,-30.472654,1.620409,-114.876144,-4.405934,-11.270291,0.447351,-79.927704,-6.605059,256.648499
238,285959274,-32.309208,3.844771,-110.803001,-3.751301,-12.824195,-0.421386,-121.521576,-15.797036,278.434235
239,285975941,-34.915340,6.158032,-106.698700,-2.416266,-12.959889,-0.017765,-177.483307,-22.784897,281.696198
240,285992608,-38.121418,8.510247,-102.831718,-1.305359,-10.759040,0.137835,-221.616898,-26.076717,269.502991
241,286009275,-41.620781,10.847366,-99.275696,-1.087185,-7.897320,-0.234273,-245.468781,-29.758636,251.910355
242,286025942,-44.801445,13.207988,-96.079041,-1.862523,-5.720065,-0.373403,-230.460556,-27.750578,234.291962
243,286042609,-47.231033,15.659621,-93.240288,-1.874760,-3.904154,0.267129,-187.904648,-19.067009,220.975830
244,286059276,-48.926014,18.237680,-90.793549,-1.573886,-0.983831,1.133351,-144.185944,-3.674660,209.500671
245,286075943,-50.002937,20.864149,-88.836678,-1.080470,0.484015,0.843244,-103.608597,15.806226,192.255737
246,286092610,-50.669605,23.671333,-87.525551,-1.082858,0.014020,-0.254180,-69.517471,48.937691,176.709564
247,286109277,-51.091248,26.877300,-86.957825,-0.970732,-0.046686,-1.358230,-39.551296,94.943527,169.254074
248,286125944,-51.492813,30.380020,-87.140289,-0.109074,2.015704,-2.228478,-18.554264,136.402588,158.570236
249,286142611,-52.445511,33.842213,-88.166809,1.346265,4.625078,-2.957891,-24.115198,166.545883,132.056717
250,286159278,-54.602638,36.932102,-90.204712,3.144115,7.306671,-3.220928,-58.291275,187.835571,90.368637
251,286175945,-58.195377,39.354805,-93.515709,4.903326,8.951936,-3.303263,-92.511757,208.023148,35.142353
252,286192612,-63.348488,41.061882,-98.042992,5.414595,9.527122,-3.517309,-133.433044,228.478333,-11.396845
253,286209279,-69.457024,41.981617,-103.391647,4.725944,8.276305,-3.454232,-153.347015,239.696045,-45.093426
254,286225946,-75.698425,42.311813,-109.126984,2.825178,8.587955,-2.431357,-143.130707,246.787994,-56.950455
255,286242613,-80.941299,42.409859,-114.564468,0.378036,11.535958,-0.042708,-94.356369,234.684921,-42.503197
256,286259280,-84.241074,42.467045,-118.714630,0.255573,14.974619,3.564880,-29.648018,180.103973,-19.763351
257,286275947,-85.051208,42.587593,-120.742996,2.814485,15.721392,6.398603,33.920044,87.408936,-0.648201
258,286292614,-83.674438,42.834343,-120.721588,5.914510,12.940972,6.433693,81.999474,-2.050231,15.334822
259,286309281,-80.898270,43.221275,-119.314606,6.961030,9.713647,4.847740,109.227745,-60.607479,31.787237
260,286325948,-77.590706,43.716236,-117.162537,6.630896,8.357046,2.243221,109.873970,-89.092773,47.149799
261,286342615,-74.452530,44.198231,-114.618591,5.905251,9.126614,0.076801,82.588440,-102.200882,55.079243
262,286359282,-71.876572,44.601742,-111.870697,5.163167,9.638698,-0.846206,39.450058,-108.299927,57.756332
263,286375949,-69.946220,44.908520,-109.009232,4.333289,9.983915,-0.371913,-4.808424,-111.758293,57.726601
264,286392616,-68.468498,45.019657,-106.022675,3.150480,10.140034,0.174661,-37.711842,-118.727348,51.697086
265,286409283,-67.353653,44.699955,-103.031425,2.092453,9.954474,0.041594,-59.452152,-127.657196,30.523167
266,286425950,-66.708389,43.774101,-100.214310,1.101616,9.358126,-0.388957,-78.947731,-135.742065,-3.429788
267,286442617,-66.454857,42.201942,-97.786095,0.108531,7.580161,-0.465361,-83.876755,-137.856796,-43.740463
268,286459284,-66.364227,40.145229,-96.040642,-0.899494,4.829640,-0.105770,-63.257130,-124.202644,-81.087158
269,286475951,-66.007248,37.736179,-95.137604,-1.477718,2.794212,-0.281749,-12.385765,-99.496330,-114.769470
270,286492618,-65.108360,35.060501,-95.119118,-1.687600,1.706491,-0.826626,53.518276,-69.821739,-145.336884
271,286509285,-63.456070,32.089787,-95.923561,-1.627460,1.246243,-1.611470,126.063232,-43.699444,-177.593246
272,286525952,-60.887463,28.776226,-97.466965,-1.330575,0.698653,-2.356560,201.232498,-24.777399,-212.659836
273,286542619,-57.407043,25.072535,-99.630249,-0.662079,-0.374795,-3.618068,267.772583,-17.179735,-249.709076
274,286559286,-53.234287,20.975853,-102.303284,0.165529,-1.991696,-5.469693,313.220612,-21.025246,-285.727356
275,286575953,-48.661888,16.483871,-105.478104,1.144353,-4.894052,-6.674585,335.583405,-32.238392,-322.581543
276,286592620,-44.185230,11.564922,-109.145020,2.573196,-10.218334,-6.643425,321.944672,-51.298561,-360.570343
277,286609287,-40.353302,6.329478,-113.360832,2.316843,-17.736797,-4.349170,269.269714,-66.825287,-395.766479
278,286625954,-37.656494,1.161019,-117.726334,-2.434224,-23.873661,0.075983,178.994354,-78.893799,-397.808319
279,286642621,-35.828415,-3.197866,-121.987892,-9.315702,-25.128441,4.465780,105.289711,-59.071423,-360.803040
280,286659288,-34.632774,-5.933047,-125.512459,-11.454344,-18.968218,6.544395,55.116280,-14.941171,-266.337952
281,286675955,-34.531181,-6.962841,-127.206589,-8.811255,-8.434963,5.158925,-5.071230,3.922502,-117.701370
282,286692622,-35.174412,-6.760358,-126.526016,-3.889416,-2.972863,1.580273,-33.462093,-15.733525,40.740448
283,286709289,-36.164497,-5.927080,-123.999924,-0.226378,-5.469148,0.700075,-42.392666,-49.761742,152.058990
284,286725956,-38.376537,-4.686307,-120.656990,-1.188723,-8.670964,2.888514,-113.874229,-64.252213,204.543854
285,286742623,-40.942081,-2.950155,-117.169724,-3.308942,-10.372637,2.762540,-139.684494,-55.605797,227.740204
286,286759290,-43.314556,-0.801638,-113.513298,-3.979652,-11.539834,1.097845,-134.845673,-54.043472,249.625137
287,286775957,-46.111019,1.637944,-109.643311,-3.514730,-12.471226,-0.167918,-169.134705,-61.915974,268.533936
288,286792624,-49.503506,4.238495,-105.836182,-2.506040,-12.568387,-0.572465,-214.886978,-66.798553,269.384125
289,286809291,-52.753929,6.960409,-102.404976,-2.054495,-10.885624,-0.321814,-214.756607,-59.593121,256.307220
290,286825958,-55.295132,9.812777,-99.541557,-2.095100,-8.305134,0.056313,-177.203751,-39.564381,238.917892
291,286842625,-57.019279,12.692539,-97.284698,-1.425104,-6.301377,-0.273147,-129.571487,-16.616104,218.045670
292,286859292,-58.072044,15.530158,-95.615288,-0.735955,-4.671855,-0.491033,-87.302551,6.866084,196.367493
293,286875959,-58.661053,18.303951,-94.546349,-0.546391,-2.442094,-0.655846,-53.727264,32.522354,174.456741
294,286892626,-59.167892,21.054066,-94.112648,-0.787050,-1.185737,-0.734802,-38.895153,61.692566,154.538300
295,286909293,-59.811413,23.821659,-94.639893,-0.957724,-0.279363,-0.807700,-26.256824,106.978668,128.790283
296,286925960,-60.809948,26.643320,-96.276749,-1.169648,0.716399,-0.309344,-17.756088,158.508148,103.630394
297,286942627,-62.066578,29.322166,-98.908463,-1.609678,3.045449,0.265930,-1.010912,196.784851,75.041595
298,286959294,-63.917732,31.519728,-102.506554,-0.966626,5.712065,0.315727,-1.441511,223.188202,33.460106
299,286975961,-66.533356,32.911877,-107.000343,0.304697,8.275709,0.161240,-12.864261,239.559784,-19.224209
300,286992628,-69.993347,33.515968,-112.123917,0.876135,9.986122,0.389187,-38.847572,249.754089,-61.035561
301,287009295,-73.798920,33.509548,-117.368126,0.048066,12.464368,-0.311730,-54.235836,246.667755,-81.322845
302,287025962,-77.035660,33.287235,-122.216766,-1.463354,15.964016,-0.107785,-33.726887,229.120697,-73.497139
303,287042629,-78.931587,33.106865,-126.059364,1.034084,19.626085,1.452871,12.769592,183.873886,-50.204182
304,287059296,-79.254166,33.038441,-128.277115,6.267776,19.005476,1.760810,53.526314,106.141678,-24.598919
305,287075963,-78.556396,33.198727,-128.830124,10.456194,14.773878,1.175737,60.267902,26.548223,4.606368
306,287092630,-77.479614,33.625427,-128.078751,12.204247,10.362975,0.452096,40.052490,-34.068619,33.360092
307,287109297,-76.657921,34.263817,-126.403496,12.001688,8.310363,-0.670751,-6.554751,-75.269989,56.480583
308,287125964,-76.353210,35.000458,-124.074348,9.796494,8.592518,-1.149393,-60.865906,-104.066010,70.284599
309,287142631,-76.401184,35.651478,-121.237213,7.209540,9.656200,-0.882789,-101.037460,-128.343567,71.136971
310,287159298,-76.526878,36.102390,-118.027817,4.693516,9.936474,-0.155434,-120.119354,-147.925903,63.279354
311,287175965,-76.479874,36.449528,-114.695145,2.876888,9.517354,1.285982,-115.224785,-154.451187,58.326736
312,287192632,-76.077553,36.755051,-111.484863,2.116636,9.019474,2.784803,-90.447128,-148.431030,54.933144
313,287209299,-75.235550,36.808735,-108.516113,1.888789,8.299730,3.265913,-55.880299,-139.977951,38.910175
314,287225966,-74.119545,36.411686,-105.852470,1.047802,6.732329,3.145415,-28.096071,-132.582611,11.374939
315,287242633,-72.884331,35.518135,-103.626793,-0.204256,5.545169,2.660863,-4.063032,-121.422211,-20.259739
316,287259300,-71.473793,34.156506,-101.977005,-1.094919,4.748829,2.220441,28.333609,-104.917702,-52.460773
317,287275967,-69.855957,32.335865,-100.930519,-1.296618,3.753814,1.167575,62.890408,-88.291702,-85.241211
318,287292634,-68.063263,30.082109,-100.478661,-1.099827,2.422773,-0.047232,93.754440,-72.771210,-117.438126
319,287309301,-66.070923,27.416531,-100.660248,-0.866103,1.129179,-1.178329,125.014946,-56.101315,-150.571213
320,287325968,-63.679794,24.350269,-101.568176,-1.191856,-0.430401,-2.254590,167.470520,-36.319649,-186.939148
321,287342635,-60.519875,20.973360,-103.236946,-1.588995,-2.792947,-2.835001,228.370102,-15.723915,-221.870193
322,287359302,-56.376484,17.392746,-105.610382,-1.341239,-5.076319,-3.393459,295.550110,-0.355182,-253.047012
323,287375969,-51.823360,13.633302,-108.588745,0.665568,-7.924835,-4.183958,321.095428,4.685703,-283.287659
324,287392636,-47.896626,9.690706,-112.126160,2.943990,-12.740622,-4.283692,278.611572,3.904671,-314.408936
325,287409303,-45.261887,5.667186,-116.293617,2.026670,-18.388159,-3.436087,191.628342,11.586903,-345.182251
326,287425970,-44.120251,1.837030,-120.656525,-2.672113,-20.930147,-2.574115,85.829308,17.878191,-346.788605
327,287442637,-44.216980,-1.483285,-124.689316,-7.510907,-19.978441,-1.476002,-4.801296,23.221121,-311.833435
328,287459304,-45.315418,-3.918990,-127.866592,-8.337382,-15.935274,1.300492,-74.616837,27.830635,-237.590149
329,287475971,-47.092327,-5.291379,-129.723022,-5.453841,-9.136920,3.904762,-115.298691,20.614611,-135.758591
330,287492638,-48.640556,-5.410135,-129.903229,-3.315878,-4.121845,4.992758,-93.656639,0.664984,-11.981600
331,287509305,-49.324780,-4.305056,-128.689026,-3.503232,-5.099753,3.181535,-34.638153,-13.795332,98.193527
332,287525972,-49.616764,-2.292779,-126.617325,-4.226700,-7.994840,1.320914,-10.116804,-18.411915,172.934998
333,287542639,-49.981934,0.272725,-123.994041,-5.602635,-9.265989,0.376274,-18.883467,-23.403561,219.671692
334,287559306,-50.436932,3.176815,-121.009369,-6.531952,-10.699623,-0.671406,-32.428875,-28.595547,248.968155
335,287575973,-51.030266,6.259083,-117.761246,-6.571920,-12.207744,-1.708674,-51.364777,-35.895573,266.637299
336,287592640,-51.910042,9.411146,-114.468147,-5.235989,-12.541009,-2.558530,-79.444885,-37.886696,270.414764
337,287609307,-52.991444,12.487714,-111.418503,-2.835042,-10.457612,-2.677662,-99.355537,-32.489395,256.385681
338,287625974,-54.074318,15.328321,-108.785812,-1.022364,-7.235684,-1.650679,-102.661926,-24.548477,228.757492
339,287642641,-55.046017,17.911533,-106.572647,-0.675358,-4.781087,-0.509027,-96.007942,-16.325928,200.624512
340,287659308,-55.803181,20.285393,-104.838074,-0.759941,-3.889432,0.146437,-79.213676,-2.670416,173.658340
341,287675975,-56.382099,22.482401,-103.710060,-1.246970,-3.112702,-0.009593,-59.145935,18.715082,145.135300
342,287692642,-57.072067,24.482685,-103.238358,-0.746709,-1.459300,-0.955092,-52.407074,41.626495,115.163368
343,287709309,-58.235954,26.304729,-103.492821,-0.792756,0.415000,-0.965137,-63.015278,67.629791,85.558235
344,287725976,-59.837902,27.939247,-104.708420,-0.739504,1.942629,-0.538683,-62.591022,103.601929,51.272385
345,287742643,-61.591934,29.233931,-106.907860,-1.265817,3.176522,0.476379,-41.820675,136.540512,11.637583
346,287759310,-63.492771,30.076090,-109.935875,-1.284999,4.753198,0.922891,-23.875423,160.861679,-27.396404
347,287775977,-65.599167,30.370836,-113.618797,-0.217331,6.813303,0.671978,-14.858085,177.464630,-65.524643
348,287792644,-67.900841,30.190229,-117.770676,0.507416,8.814371,0.068355,-12.187284,190.830078,-94.296516
349,287809311,-70.179543,29.712156,-122.107895,0.597999,10.717391,-0.056563,-6.489904,197.748856,-106.861549
350,287825978,-72.272614,29.244844,-126.265053,1.230874,12.838235,1.007512,-2.541750,194.004608,-95.856377
351,287842645,-73.882645,28.990244,-129.773743,3.121357,15.324023,1.633466,6.122029,168.944412,-67.591705
352,287859312,-74.689743,29.073547,-132.160950,5.462320,16.580923,2.001385,21.352728,119.344292,-28.568645
353,287875979,-74.646400,29.495537,-133.185898,7.284563,15.984812,1.282137,32.949856,55.857265,10.760896
354,287892646,-73.889465,30.173748,-132.864594,7.870723,14.014988,0.374785,36.097954,-7.635324,44.217518
355,287909313,-72.682213,30.967915,-131.351028,7.665815,11.523563,-0.018994,26.518908,-63.757565,68.622673
356,287925980,-71.347122,31.751904,-128.915054,7.629631,9.414755,-0.263559,4.310468,-106.759071,83.760834
357,287942647,-70.198906,32.398823,-125.839432,7.381558,8.102622,-0.705103,-28.837643,-137.437744,88.612427
358,287959314,-69.485725,32.760769,-122.306480,6.890240,7.865621,-1.042577,-71.087074,-162.770950,82.401772
359,287975981,-69.317078,32.863625,-118.498253,5.636798,7.918600,-0.713079,-113.426308,-180.162094,73.797607
360,287992648,-69.358719,33.230373,-114.688957,3.404701,7.941210,1.063699,-126.864342,-174.071167,88.637054
361,288009315,-69.088676,33.976852,-111.214088,2.182089,8.149735,2.620659,-98.922821,-149.049774,103.906677
362,288025982,-68.617416,34.424385,-107.943001,2.138159,8.438076,1.674384,-81.782722,-144.282547,84.037086
363,288042649,-68.330246,34.183846,-104.926498,1.021612,8.232625,0.815922,-84.513336,-146.949478,41.871563
364,288059316,-68.158066,33.253242,-102.420303,-0.670138,6.970832,0.298949,-72.886223,-139.439178,-5.057093
365,288075983,-67.881493,31.842052,-100.685913,-1.796077,5.984521,0.291327,-39.138306,-115.618546,-45.245865
366,288092650,-67.269630,30.046976,-99.841972,-2.927891,5.817177,0.093132,10.923015,-83.822159,-82.559746
367,288109317,-66.032524,27.867558,-99.779922,-4.266937,5.240435,-1.478627,72.672241,-57.410854,-118.336296
368,288125984,-63.937546,25.229229,-100.294701,-4.312334,4.895141,-3.445232,139.741653,-44.502930,-154.708862
369,288142651,-60.846428,22.002514,-101.357086,-3.115617,3.631686,-4.621127,211.217728,-40.570530,-198.214584
370,288159318,-56.787544,18.196808,-103.074112,-1.191731,0.001132,-4.465694,279.105621,-38.065128,-245.057388
371,288175985,-52.154060,13.883094,-105.509880,2.036486,-5.291893,-4.149941,318.502472,-38.684719,-291.889618
372,288192652,-47.558506,9.183103,-108.748756,3.744003,-11.628702,-3.851918,314.647369,-38.795078,-337.952698
373,288209319,-43.529057,4.220572,-112.477081,2.024592,-17.038591,-4.074268,267.919220,-52.453438,-367.718964
374,288225986,-39.750870,-0.651561,-116.693466,-2.956943,-22.838017,-0.739315,234.601181,-52.911339,-382.765533
375,288242653,-36.259171,-4.524683,-121.187340,-9.771461,-26.745106,5.636971,197.401321,-19.716143,-354.848175
376,288259320,-33.618336,-6.691670,-125.082664,-10.688434,-22.206617,8.157282,135.789139,24.112949,-264.626404
377,288275987,-33.141487,-7.676830,-127.389870,-4.822827,-12.987228,5.785496,11.552698,23.666851,-146.681473
378,288292654,-34.640053,-7.764571,-127.463516,-0.637818,-5.392044,3.713437,-90.251396,-4.466434,-6.041814
379,288309321,-36.313232,-6.957284,-125.588356,-0.090789,-4.307007,3.161195,-85.711571,-27.853220,119.506508
380,288325988,-37.803070,-5.283844,-122.576309,-2.517102,-7.257274,4.312094,-69.843033,-30.714268,204.427567
381,288342655,-38.929211,-2.845287,-119.170860,-4.818109,-10.359512,3.434388,-52.801949,-14.357366,251.134125
382,288359322,-39.299393,0.080646,-115.637360,-4.859302,-12.709914,0.773272,-16.831161,-0.079126,275.721008
383,288375989,-39.400024,3.252341,-111.896606,-3.500160,-13.945891,-1.163804,-12.307641,2.326366,294.668274
384,288392656,-39.757809,6.509696,-108.132072,-1.875413,-14.137671,-1.581477,-40.418694,4.668198,298.511414
385,288409323,-40.618938,9.681428,-104.566833,-0.307448,-12.312347,-1.838050,-81.507729,6.153996,285.129791
386,288425990,-41.893322,12.610236,-101.385635,0.638374,-9.250170,-2.188065,-113.067604,6.079388,257.218842
387,288442657,-43.326870,15.236658,-98.627441,0.330536,-6.393399,-2.329118,-125.544510,4.715387,225.469513
388,288459324,-44.719593,17.612438,-96.289413,-0.458087,-4.530469,-1.556893,-122.944077,6.483079,196.388397
389,288475991,-46.003807,19.753298,-94.475777,-0.485244,-3.068956,-0.678459,-111.629189,14.405398,164.405045
390,288492658,-47.198753,21.646168,-93.230270,-0.207750,-1.239050,-0.047852,-97.834366,24.747580,131.126144
391,288509325,-48.333862,23.318392,-92.688797,-0.508603,0.270746,0.277389,-80.253738,42.720997,95.041649
392,288525992,-49.482002,25.005249,-92.979630,-1.534610,0.528053,0.158305,-61.469784,76.027283,66.387878
393,288542659,-50.683128,26.843714,-94.125053,-1.415726,2.300744,-0.368656,-41.741394,115.685837,45.512592
394,288559326,-52.360744,28.513393,-96.093086,0.669487,5.477429,-2.028113,-45.520699,141.683990,13.925384
395,288575993,-54.939175,29.465965,-99.066185,2.770538,7.552329,-3.344237,-67.951767,157.027771,-45.892941
396,288592660,-58.175167,29.713154,-102.724174,2.479761,8.083073,-3.538321,-85.470589,164.904892,-92.244530
397,288609327,-61.613674,29.492559,-106.791161,1.421581,7.873475,-3.013601,-85.441780,174.378128,-117.306549
398,288625994,-64.858200,28.932838,-111.077248,0.250587,8.578273,-1.422740,-68.832581,182.753677,-130.492126
399,288642661,-67.432991,28.271519,-115.327827,-0.844327,9.034675,0.759276,-32.083233,186.195770,-126.275047
400,288659328,-68.864510,27.784262,-119.391609,-0.918177,10.022483,2.965554,28.972122,186.334305,-106.687851
401,288675995,-68.940407,27.648182,-123.036827,0.486382,11.364171,3.546351,97.428932,175.146713,-76.775360
402,288692662,-67.669067,27.903938,-125.951370,2.188248,12.243323,3.083063,158.023346,146.881546,-42.416416
403,288709329,-65.258705,28.539438,-127.888863,3.948888,12.180634,1.889357,199.846848,106.581589,-5.430837
404,288725996,-62.284740,29.426582,-128.810135,5.768449,11.311418,0.212652,205.485107,64.337982,26.891439
405,288742663,-59.497765,30.390018,-128.727081,6.903456,9.977270,-0.851269,165.001663,21.772528,53.112240
406,288759330,-57.474663,31.261526,-127.753731,7.375522,8.894887,-1.250460,91.729584,-18.003441,71.288414
407,288775997,-56.523506,31.931650,-126.042015,7.088124,8.314549,-1.202828,3.531362,-54.048038,81.847252
408,288792664,-56.624561,32.335400,-123.769630,6.566964,8.288331,-1.112063,-78.306496,-85.601662,84.292267
409,288809331,-57.632107,32.641197,-121.197708,5.600159,8.496437,-0.783509,-143.055481,-101.957001,86.526375
410,288825998,-59.082134,33.053242,-118.573967,3.882940,9.203772,0.534025,-172.103729,-102.220146,90.893860
411,288842665,-60.329376,33.264359,-115.899925,1.464850,9.569326,1.637383,-162.308334,-112.179878,79.147118
412,288859332,-61.183044,33.065529,-113.132103,-1.464671,9.114350,2.182010,-141.789078,-129.718430,57.955666
413,288875999,-61.430714,32.417503,-110.388535,-3.958528,7.829158,2.331180,-103.621140,-142.716156,32.821232
414,288892666,-60.812721,31.368979,-107.848793,-4.380023,6.165851,2.354150,-43.167866,-146.266357,7.853339
415,288909333,-59.334087,30.055508,-105.721954,-2.970780,4.366145,2.407978,23.800835,-136.999100,-13.106919
416,288926000,-57.091877,28.612680,-104.327049,-1.229623,2.973731,2.154244,93.786995,-110.228371,-34.697220
417,288942667,-54.280083,27.006094,-103.771141,0.159438,2.565328,0.753813,153.401978,-81.325027,-62.536297
418,288959334,-51.194946,25.037331,-104.008179,1.167998,2.202510,-0.993043,191.597031,-63.971035,-101.304123
419,288976001,-48.031277,22.515060,-105.078079,1.690067,1.167693,-2.577061,215.935699,-55.931263,-152.893234
420,288992668,-44.754421,19.331882,-106.949936,1.878639,-0.895238,-4.342293,236.927002,-58.374718,-210.214127
421,289009335,-40.981838,15.517977,-109.594597,1.419858,-4.035047,-5.631827,274.030579,-67.302528,-266.227112
422,289026002,-36.571087,11.260521,-112.936218,-0.056712,-8.856078,-5.350048,311.160461,-79.544403,-311.650604
423,289042669,-31.302864,7.008395,-117.115646,-2.912104,-14.539781,-4.089664,355.900024,-75.956230,-347.489288
424,289059336,-24.971601,3.259111,-121.864059,-5.520273,-20.500620,-0.716527,405.289703,-67.046410,-356.001434
425,289076003,-19.118908,0.388124,-126.150764,-6.842351,-25.712105,4.308683,359.374481,-65.697197,-302.551392
426,289092670,-16.635881,-1.596478,-129.428726,-5.886219,-23.029150,6.297171,147.110855,-55.479530,-223.222656
427,289109337,-18.154377,-2.669552,-131.293259,-4.039672,-13.141158,4.095110,-95.010254,-30.550894,-125.414566
428,289126004,-20.948046,-2.941592,-131.259811,-2.752384,-4.560975,0.576875,-167.272827,-18.583757,-3.052750
429,289142671,-23.119143,-2.547890,-129.535751,-2.138574,-4.222873,-0.246754,-125.054619,-19.395285,105.167114
430,289159338,-24.956495,-1.457632,-126.816605,-2.704897,-7.575990,1.430472,-104.267159,-9.212830,176.084869
431,289176005,-27.051945,0.234589,-123.610825,-3.213545,-9.661023,1.768020,-123.384338,4.383014,217.909134
432,289192672,-29.118473,2.359257,-120.306679,-4.033900,-11.049297,0.943671,-128.182312,16.612425,235.411102
433,289209339,-31.026920,4.810274,-116.947578,-4.921041,-11.826491,-0.482974,-126.809631,23.920877,248.307678
434,289226006,-32.619297,7.459754,-113.623772,-4.338959,-12.070322,-1.364211,-116.562668,27.974258,252.845932
435,289242673,-33.827457,10.196179,-110.526947,-2.917090,-10.828666,-1.718502,-100.722954,34.217060,244.101379
436,289259340,-34.841347,12.894296,-107.752953,-1.652204,-8.356031,-1.608733,-93.868660,39.185467,226.520981
437,289276007,-35.841618,15.456293,-105.374985,-1.467770,-6.426995,-1.348876,-94.681801,42.868500,202.320541
438,289292674,-36.905712,17.797211,-103.421440,-1.133909,-4.797328,-0.962069,-97.110619,43.987728,174.293274
439,289309341,-38.062412,19.865200,-101.963394,-0.563960,-3.215797,-0.710394,-97.365608,45.585022,141.780045
440,289326008,-39.456829,21.628525,-101.029556,-0.218970,-1.425277,-0.294468,-103.238914,47.213207,107.663300
441,289342675,-41.415802,23.091927,-100.727257,0.120926,0.270530,0.172834,-124.164536,53.465782,70.292961
442,289359342,-43.900974,24.389370,-101.200806,-0.022399,1.481177,0.495096,-137.397873,72.385071,34.196548
443,289376009,-46.632999,25.661003,-102.506500,-1.239722,2.974644,1.097562,-130.501495,101.633347,4.807360
444,289392676,-49.476925,26.785238,-104.650230,-0.795117,4.618104,0.681744,-113.513504,128.404617,-26.390945
445,289409343,-52.585632,27.586838,-107.629005,0.173008,6.128427,-0.500094,-104.564835,151.336014,-62.028522
446,289426010,-56.183296,27.882469,-111.377632,0.891234,7.345812,-1.676262,-110.864082,169.647263,-100.951698
447,289442677,-60.301186,27.617258,-115.726654,0.825795,8.502547,-2.650813,-125.222870,185.453568,-134.505096
448,289459344,-64.611771,26.939884,-120.255318,-0.129854,9.965388,-2.806368,-133.731247,192.811844,-147.138580
449,289476011,-68.573601,26.011940,-124.536331,-1.176695,11.445343,-1.498003,-122.838737,186.349365,-141.861374
450,289492678,-71.757324,24.974838,-128.251709,0.357044,13.173540,0.677887,-94.751228,165.618408,-126.242798
451,289509345,-73.901222,24.078617,-131.026382,3.006248,13.776710,2.609341,-59.228848,126.269669,-95.541580
452,289526012,-75.000664,23.588936,-132.663513,5.917941,13.043713,3.664132,-25.994286,76.117477,-51.863037
453,289542679,-75.211548,23.607956,-133.144394,8.148817,10.971640,3.228207,-0.824013,23.270918,-5.178488
454,289559346,-74.956062,24.165340,-132.635849,9.482419,8.700855,2.500083,3.253419,-20.924755,39.999100
455,289576013,-74.483749,25.126118,-131.272156,9.868873,7.594928,1.595949,-5.503644,-59.121147,75.693573
456,289592680,-74.091698,26.321709,-129.220245,9.276186,7.804587,0.334054,-29.639360,-89.915825,99.557938
457,289609347,-74.048660,27.633604,-126.669548,7.238616,8.039638,-0.072120,-66.568604,-112.118790,113.575615
458,289626014,-74.337898,29.175901,-123.867546,4.842292,8.265269,1.092326,-97.051903,-119.658875,129.758698
459,289642681,-74.421036,30.889257,-121.044998,3.373251,8.382170,2.440798,-89.476974,-116.099693,138.911652
460,289659348,-74.009811,32.446568,-118.244370,2.630537,8.346444,2.190340,-63.283070,-114.785072,129.239563
461,289676015,-73.400360,33.610912,-115.456001,1.947793,8.338574,1.722499,-54.360935,-117.604836,106.830811
462,289692682,-72.870308,34.219479,-112.689758,1.294589,7.913481,1.732452,-60.542080,-123.792770,75.323280
463,289709349,-72.541290,34.282223,-110.085449,0.018873,6.851291,1.804359,-67.942635,-124.777763,42.417587
464,289726016,-72.212738,33.813461,-107.822395,-1.379594,5.459952,2.085092,-56.048038,-118.315735,7.682681
465,289742683,-71.676788,32.836044,-106.030724,-2.025050,4.199709,1.889515,-26.642323,-106.156799,-27.489540
466,289759350,-70.704079,31.348410,-104.819244,-1.833258,2.827079,0.858841,20.000414,-89.656593,-64.206306
467,289776017,-69.180847,29.368877,-104.304306,-1.555601,1.301301,-0.438796,76.028732,-68.367699,-101.998238
468,289792684,-66.906181,26.929119,-104.508125,-2.289101,0.260893,-2.102007,142.489273,-47.328732,-139.377792
469,289809351,-63.659531,23.989023,-105.377106,-2.631470,-1.566233,-3.976672,217.430908,-33.599834,-179.516769
470,289826018,-59.393387,20.594376,-106.947388,-1.896852,-3.647994,-5.615752,291.888123,-23.066250,-220.214706
471,289842685,-54.144203,16.808496,-109.152130,-0.693378,-5.870664,-6.640687,357.490845,-22.257315,-258.317413
472,289859352,-48.102402,12.754862,-111.904427,0.738826,-9.123357,-5.940296,404.700195,-30.918314,-289.240662
473,289876019,-41.521469,8.648246,-115.355804,1.065231,-13.438269,-3.780612,433.299500,-33.929192,-317.715546
474,289892686,-34.936790,4.832599,-119.291580,0.222737,-17.805569,-0.788377,422.764465,-37.236580,-325.584015
475,289909353,-29.138346,1.536813,-123.206680,-1.350039,-20.443247,0.876060,360.982056,-45.726955,-303.348541
476,289926020,-25.211069,-1.063209,-126.686745,-2.198594,-19.960308,1.230246,236.631668,-45.940105,-256.541168
477,289942687,-24.139105,-2.820015,-129.299362,-2.224579,-16.219650,1.604338,59.227390,-32.909496,-185.856644
478,289959354,-25.509146,-3.724304,-130.680038,-2.357737,-9.584634,2.448649,-86.695595,-17.056520,-97.333946
479,289976021,-27.705334,-3.761325,-130.548065,-3.558471,-4.714841,2.426100,-131.029160,-8.054313,6.582613
480,289992688,-29.710917,-2.970044,-129.094894,-5.116134,-5.658508,1.745794,-114.982422,-2.696789,99.668800
481,290009355,-31.781881,-1.537042,-126.743080,-6.044956,-7.821023,1.339936,-118.456917,-0.719540,165.661636
482,290026022,-34.169163,0.251147,-123.825211,-6.827281,-9.428247,0.737461,-140.997528,-7.808236,205.792450
483,290042689,-36.774940,2.229824,-120.597458,-6.912006,-10.302757,-0.043419,-160.246796,-18.205441,227.128433
484,290059356,-39.471752,4.314792,-117.302368,-5.969177,-9.842778,-0.700818,-172.791534,-25.971796,233.071823
485,290076023,-42.073402,6.434629,-114.249420,-4.472063,-8.182206,-1.042024,-172.957474,-25.292921,221.748779
486,290092690,-44.319649,8.522426,-111.582649,-3.535765,-5.565753,-1.055051,-155.310562,-19.775726,201.981339
487,290109357,-45.932823,10.472408,-109.349136,-2.935570,-3.211925,-0.784490,-118.625870,-13.613667,176.752258
488,290126024,-46.944355,12.260113,-107.461731,-2.399695,-1.534438,-0.373166,-82.739662,-9.026642,154.824890
489,290142691,-47.686214,13.820508,-105.956245,-1.583615,-0.938268,-0.248414,-64.622971,-3.703727,129.073212
490,290159358,-48.510635,15.119857,-104.969330,-0.732294,-0.457729,-0.452001,-63.989571,6.905405,96.912254
491,290176025,-49.510452,16.086515,-104.677223,-0.518355,0.457943,-0.916718,-64.431038,22.811119,55.448238
492,290192692,-50.726688,16.991667,-104.982895,-1.697145,0.942683,-0.426799,-67.479958,45.820023,30.998550
493,290209359,-51.949089,17.943369,-105.856087,-2.851224,2.339361,0.752177,-57.343330,72.198151,13.963569
494,290226026,-53.074722,18.767075,-107.245941,-2.636708,3.908799,1.034916,-40.999863,90.377251,-8.359241
495,290242693,-54.047493,19.410053,-109.085915,-2.628610,5.176558,1.082126,-21.982924,104.331474,-30.334970
496,290259360,-54.781162,19.985680,-111.331078,-3.435418,6.123594,1.477241,1.665800,120.718666,-45.121006
497,290276027,-55.147209,20.585213,-113.887939,-3.761907,7.450639,1.632424,31.504654,135.942032,-52.563866
498,290292694,-54.993877,21.274998,-116.585686,-2.807095,8.608256,1.687750,67.300758,145.106888,-52.043102
499,290309361,-54.482052,22.019678,-119.313820,0.520335,9.319423,1.242185,91.369270,147.476471,-50.765827
500,290326028,-53.993519,22.801798,-121.850548,4.241714,9.532690,1.249706,87.618156,139.049927,-43.574398
501,290342695,-53.891525,23.563112,-124.002533,8.338984,9.096436,0.631945,57.232033,120.282310,-32.361622
502,290359362,-54.446571,24.252966,-125.533157,11.363901,8.530303,-0.677034,4.200010,89.733803,-15.030508
503,290376029,-55.905701,24.809540,-126.286964,12.823192,7.902822,-1.922752,-68.487366,50.279671,4.460354
504,290392696,-58.151588,25.233370,-126.212334,12.521330,7.617463,-1.959860,-136.369720,7.866290,24.065014
505,290409363,-60.695179,25.595619,-125.317497,10.654250,8.008574,-0.657640,-175.382416,-33.267967,43.884289
506,290426030,-62.940838,25.995373,-123.662941,7.448763,8.745332,0.682663,-177.661850,-70.034332,63.837437
507,290442697,-64.279198,26.504988,-121.409760,3.506581,8.984282,2.098009,-139.819290,-97.599068,81.745888
508,290459364,-64.265793,27.368666,-118.773399,0.073613,8.258280,3.553311,-70.586578,-107.125969,108.342926
509,290476031,-62.733978,28.902752,-115.969948,-1.158384,7.254915,3.927614,12.834881,-94.265862,148.986023
510,290492698,-59.766171,30.897245,-113.067009,-0.426054,6.550542,3.152359,91.459610,-77.431297,177.966705
511,290509365,-55.987965,32.944851,-110.020126,1.082886,6.018639,1.805572,130.227280,-68.712303,186.981155
512,290526032,-52.273605,34.748348,-106.821709,2.059857,5.882408,1.217659,116.175293,-68.387444,181.497345
513,290542699,-49.047520,36.125805,-103.562454,1.252173,5.483854,1.694171,80.390785,-73.469460,165.336502
514,290559366,-46.131168,37.184193,-100.283623,-2.228718,4.206016,2.883966,57.753029,-76.332237,153.742905
515,290576033,-42.878807,38.011574,-97.208740,-3.373604,4.123587,2.352243,82.798187,-69.701202,139.473389
516,290592700,-39.374416,38.511833,-94.444695,-1.779366,4.704488,0.988884,107.790123,-65.684044,118.266281
517,290609367,-36.275593,38.466602,-92.174118,-0.062785,5.403068,-0.285339,101.374306,-70.187706,83.009056
518,290626034,-33.941479,37.710415,-90.548515,0.456015,4.888476,-1.259325,80.116661,-83.922722,37.155922
519,290642701,-32.090870,36.310749,-89.636322,-0.608203,3.805437,-1.991930,78.327553,-96.895149,-8.662102
520,290659368,-30.238647,34.382103,-89.431465,-1.411313,2.633506,-2.907674,104.253990,-106.878708,-50.854492
521,290676035,-28.065836,32.042107,-89.949814,-1.085716,1.602597,-3.724084,147.631241,-112.616913,-90.665901
522,290692702,-25.457928,29.356440,-91.216064,0.071792,0.259138,-4.206590,195.479614,-117.144081,-130.436218
523,290709369,-22.566139,26.294916,-93.137756,1.652628,-1.723206,-4.233135,227.531204,-128.975830,-167.445786
524,290726036,-19.752571,22.798183,-95.615913,2.946405,-4.762189,-3.884249,230.773895,-149.494766,-201.418045
525,290742703,-17.340637,18.882847,-98.540932,3.219097,-8.147068,-4.059361,207.337646,-173.173584,-229.775238
526,290759370,-15.244964,14.725791,-101.781944,2.321929,-11.653082,-4.018964,182.141693,-189.770142,-248.206680
527,290776037,-13.123490,10.683383,-105.220116,-0.271997,-15.048203,-2.709450,172.830200,-188.401505,-254.086182
528,290792704,-10.664824,7.158724,-108.592987,-3.929209,-17.764372,0.906923,179.069473,-168.290695,-238.760773
529,290809371,-8.008212,4.517315,-111.554359,-6.155246,-18.297514,4.881342,177.655640,-130.265259,-199.658173
530,290826038,-5.666387,3.043372,-113.655807,-5.458195,-15.115356,5.714980,149.044861,-75.380043,-134.948990
531,290842705,-4.207836,2.654514,-114.377365,-3.959804,-11.199724,3.437210,89.907219,-22.058336,-44.581673
532,290859372,-4.186608,2.918332,-113.662888,-2.771589,-9.699270,1.363850,-0.566916,10.132477,44.369911
533,290876039,-5.757477,3.527962,-111.721954,-2.921564,-9.827410,1.565575,-100.545723,23.853191,119.514175
534,290892706,-8.641822,4.298479,-108.941521,-3.250148,-10.081917,1.853630,-184.162552,22.507221,171.448502
535,290909373,-12.411246,5.173916,-105.637154,-3.097746,-10.897554,0.898361,-242.218536,13.052116,204.413681
536,290926040,-16.689848,6.153959,-101.933144,-2.482018,-11.065394,-0.565885,-278.298798,-1.133011,229.416443
537,290942707,-21.045305,7.294410,-98.017426,-2.076066,-10.356768,-1.423130,-288.467529,-13.188735,243.513535
538,290959374,-24.959814,8.609200,-94.144211,-1.708536,-8.915769,-2.079634,-266.654449,-19.807409,243.282303
539,290976041,-28.086851,10.117110,-90.483925,-1.539773,-7.609640,-1.932409,-223.004822,-18.289486,234.873703
540,290992708,-30.302561,11.812487,-87.188957,-1.130823,-6.717923,-1.565140,-170.220108,-8.341384,219.626480
541,291009375,-31.716408,13.636678,-84.394051,-0.356468,-5.492522,-1.171901,-121.459053,7.074139,197.160721
542,291026042,-32.659908,15.575138,-82.172874,0.179162,-4.234007,-0.876988,-89.912949,27.277168,171.674927
543,291042709,-33.401379,17.639845,-80.614342,0.663586,-2.753190,-0.673803,-70.912132,52.562111,143.236664
544,291059376,-34.167011,19.756332,-79.810059,0.536475,-1.079518,-0.248629,-61.107319,77.677841,109.188995
545,291076043,-35.168163,21.717651,-79.884491,0.165916,0.545066,0.167592,-58.186008,96.713646,64.084641
546,291092710,-36.605003,23.374308,-80.924164,-0.607983,1.501549,0.503541,-61.990463,111.845490,12.169199
547,291109377,-38.699276,24.842402,-82.939369,-1.295342,2.095300,0.490634,-75.958061,134.690964,-32.996723
548,291126044,-41.368748,26.220755,-85.844452,-2.485003,2.889608,0.662296,-84.718002,162.009216,-66.660912
549,291142711,-44.253448,27.500408,-89.555443,-3.835983,3.442050,1.891550,-72.139206,188.811249,-92.975777
550,291159378,-46.719635,28.734394,-93.803459,-3.495068,4.754792,3.834743,-27.510485,209.685852,-104.244133
551,291176045,-48.696354,29.996746,-98.344620,-0.935063,6.443630,5.185333,15.340568,224.078751,-103.203278
552,291192712,-50.745029,31.287157,-103.155258,2.074293,7.484846,4.429571,24.522524,236.952332,-100.936516
553,291209379,-53.245556,32.490620,-108.096527,3.685331,8.510014,1.327098,6.930859,240.246521,-97.561325
554,291226046,-55.991875,33.491234,-112.755356,4.556494,11.042217,-1.247256,-12.245519,223.349213,-86.267395
555,291242713,-58.262066,34.180931,-116.573135,3.421630,14.216728,-1.981606,-8.364650,179.703781,-67.984207
556,291259380,-59.301506,34.499416,-119.108047,3.327502,16.170786,-1.153737,23.701174,114.744492,-48.219128
557,291276047,-58.910503,34.528996,-120.219185,4.667065,15.528230,-0.737147,61.501694,45.482727,-26.168623
558,291292714,-57.484463,34.306202,-120.051590,6.307605,13.402394,-1.162651,80.150696,-16.675787,-6.488171
559,291309381,-55.574612,33.927856,-118.958565,6.959697,10.899511,-1.804623,78.078979,-60.401489,11.495975
560,291326048,-53.731461,33.488544,-117.149124,6.756083,9.395809,-2.502834,50.604630,-91.508339,31.223265
561,291342715,-52.436169,33.249428,-114.783669,5.633358,9.369299,-2.483237,-0.082938,-105.980789,60.185886
562,291359382,-51.542976,33.140106,-111.887596,4.072471,9.485961,-2.053785,-41.280655,-121.208237,84.825813
563,291376049,-50.804298,32.933994,-108.513275,2.837193,9.296314,-1.755070,-65.799393,-142.580597,97.217201
564,291392716,-50.334579,32.524876,-104.815857,2.106140,9.024256,-1.179888,-91.506859,-162.342819,100.010498
565,291409383,-50.160065,31.826817,-101.011574,1.116340,8.899508,-0.499179,-110.824974,-177.924500,91.787079
566,291426050,-50.069424,30.863285,-97.340401,0.087540,8.595671,0.006913,-108.893196,-184.030685,76.710121
567,291442717,-49.930050,29.691872,-94.007133,-0.796650,8.019983,0.803144,-92.228065,-180.096695,57.614388
568,291459384,-49.697338,28.319897,-91.188644,-1.363245,7.234811,1.433547,-67.798897,-168.723389,32.980904
569,291476051,-49.389118,26.879650,-88.950455,-2.155212,6.428321,1.583929,-43.486832,-149.253021,11.896871
570,291492718,-48.747074,25.333941,-87.361229,-2.655701,5.969583,0.814561,-3.201993,-128.084671,-13.542930
571,291509385,-47.734871,23.633480,-86.460686,-3.043428,5.105069,-0.182387,38.572601,-107.276443,-42.934940
572,291526052,-46.278774,21.744816,-86.242996,-3.212181,3.814347,-0.988643,82.562546,-88.742287,-74.243576
573,291542719,-44.341534,19.634796,-86.730904,-2.742628,2.339196,-1.095407,126.809837,-72.226814,-108.838264
574,291559386,-41.888073,17.251415,-87.965996,-1.857895,0.596750,-1.155190,170.878815,-59.004364,-148.628464
575,291576053,-38.945305,14.553020,-89.954315,-0.653835,-1.895809,-1.434444,209.464447,-51.533398,-191.894440
576,291592720,-35.500141,11.609812,-92.712212,0.369159,-4.605642,-1.901716,244.345947,-45.754005,-234.744614
577,291609387,-31.427395,8.478449,-96.216988,1.081466,-7.553874,-3.136615,281.178497,-45.167671,-275.926300
578,291626054,-26.946894,5.277743,-100.450279,1.979385,-12.452462,-1.885040,299.333405,-47.252930,-313.399109
579,291642721,-22.827496,2.174988,-105.102951,0.724169,-18.530670,1.753016,265.385437,-54.179424,-330.616638
580,291659388,-19.240568,-0.430951,-109.972214,-2.471501,-22.809679,5.572048,219.765045,-43.605301,-328.311554
581,291676055,-16.467115,-2.044530,-114.379570,-5.516405,-22.457977,6.447090,160.864426,-13.625913,-280.837860
582,291692722,-15.247119,-2.862411,-117.526367,-5.135279,-17.716621,4.336337,65.355148,1.799553,-194.348892
583,291709389,-16.170147,-3.194383,-118.811142,-2.749561,-11.539919,3.380062,-59.199162,-0.861321,-78.975975
584,291726056,-18.149313,-3.070201,-118.119507,-1.705425,-6.199929,2.616781,-116.231064,-7.624327,42.313938
585,291742723,-19.698933,-2.347324,-115.926697,-3.440977,-6.680405,2.583979,-86.499069,-4.111585,138.909485
586,291759390,-20.537962,-0.943676,-112.856674,-3.906515,-10.060087,2.173249,-44.787930,13.220987,202.385132
587,291776057,-20.791012,0.975908,-109.326378,-2.878239,-12.095472,1.297645,-14.984429,30.482454,239.360123
588,291792724,-20.771223,3.217546,-105.560417,-2.022096,-13.217867,0.064013,-6.826770,43.098145,259.365112
589,291809391,-20.823498,5.535037,-101.911865,-0.085799,-13.417386,-1.001376,-19.584742,49.968971,253.953537
590,291826058,-21.480043,7.723352,-98.381989,1.790617,-12.044508,-1.198709,-63.568947,44.040974,244.117172
591,291842725,-23.013206,9.727490,-95.012222,1.955917,-10.433365,-1.582808,-122.366798,33.157093,231.039154
592,291859392,-25.120134,11.553311,-91.833298,1.307536,-8.557633,-1.694325,-161.330429,21.117002,216.391296
593,291876059,-27.502502,13.204696,-88.815407,0.322866,-6.681690,-1.399052,-181.451904,7.967756,203.026077
594,291892726,-29.860991,14.717010,-86.120514,-0.191658,-5.112822,-0.563601,-180.214951,1.844521,181.785278
595,291909393,-31.947838,16.308949,-83.871597,-1.206568,-3.593410,0.327366,-160.999802,12.730700,161.192841
596,291926060,-33.679688,17.996304,-82.273506,-1.618232,-2.381278,0.653856,-131.893799,32.993645,132.442596
597,291942727,-34.969212,19.966679,-81.366310,-2.114078,-0.805698,0.808574,-94.780617,66.166916,109.748314
598,291959394,-36.143661,21.649223,-81.469856,-1.294145,1.591990,-0.130626,-67.964516,83.056908,54.557411
599,291976061,-37.605827,23.256475,-82.500191,-1.188387,3.015893,-0.936690,-63.821556,108.968399,12.740550
600,291992728,-39.593536,24.673738,-84.384918,-1.652601,5.164643,-1.145729,-73.025887,128.456314,-27.137825
601,292009395,-42.355068,25.804399,-87.035507,-1.042828,7.823932,-2.039342,-97.565735,143.060944,-63.558052
602,292026062,-45.612385,26.509962,-90.204803,-0.180664,10.534151,-2.868033,-111.286804,146.493454,-92.846985
603,292042729,-49.248932,26.640154,-93.750580,0.273496,11.646626,-3.172838,-122.683983,142.902191,-122.393593
604,292059396,-53.292515,26.241230,-97.615189,-0.148753,12.160855,-3.770103,-139.018845,144.478027,-148.003860
605,292076063,-56.756008,25.513792,-101.417473,-1.766725,12.769945,-2.444584,-107.901031,140.642776,-152.858002
606,292092730,-58.674980,24.899958,-104.732048,-1.398774,13.375207,0.395064,-30.139814,129.897903,-126.689270
607,292109397,-58.848042,24.711987,-107.289505,1.604725,13.186437,0.877179,54.272701,110.680161,-81.341438
608,292126064,-57.901066,25.022797,-109.044998,5.282190,11.902596,0.418160,101.386749,88.574036,-33.709488
609,292142731,-56.808228,25.608702,-109.959053,8.230276,10.697587,0.373083,89.297279,58.127567,3.365944
610,292159398,-56.242863,26.206104,-109.985298,9.163280,9.548987,0.335701,34.884457,18.365852,29.611841
611,292176065,-56.427395,26.674582,-109.206902,8.079030,9.146178,0.699998,-31.596941,-21.809767,47.054016
612,292192732,-57.218365,26.945879,-107.750572,5.732045,8.693195,1.199247,-86.599319,-58.955845,56.765972
613,292209399,-58.321640,27.130754,-105.818039,3.221819,7.872107,1.570742,-118.638573,-84.042740,64.919159
614,292226066,-59.295708,27.501459,-103.568268,0.951921,6.893910,2.655538,-120.121391,-93.672661,81.586739
615,292242733,-59.637749,28.581282,-101.405846,-0.332574,6.328311,3.817279,-81.257904,-68.319023,114.418877
616,292259400,-59.191151,29.939581,-99.428886,0.414373,6.414142,3.073238,-30.927900,-50.220261,123.243416
617,292276067,-58.470192,31.061539,-97.474518,1.244038,6.599288,1.706995,-16.008240,-54.215057,110.321938
618,292292734,-57.918938,31.731522,-95.583061,1.078112,6.363012,1.009480,-25.797991,-63.743225,85.645729
619,292309401,-57.699669,31.931623,-93.868080,0.711267,6.030044,0.670526,-40.864765,-70.192856,57.161633
620,292326068,-57.829285,31.701439,-92.356438,0.276347,5.771700,0.465859,-55.341747,-75.164078,29.854282
621,292342735,-58.217434,31.054790,-91.122795,-0.117738,5.279484,0.106951,-61.580132,-76.758408,0.979969
622,292359402,-58.737244,30.081448,-90.307350,-0.719631,4.800961,-0.043082,-55.821735,-69.056686,-27.331144
623,292376069,-59.215446,28.813293,-89.996758,-1.357644,4.665556,-0.569669,-37.605179,-55.733543,-56.419147
624,292392736,-59.447651,27.139822,-90.223007,-1.967900,4.197954,-1.752707,-7.314205,-43.518894,-92.055412
625,292409403,-59.286938,24.994209,-90.924042,-2.303654,3.289779,-3.220014,28.377384,-35.700916,-129.598373
626,292426070,-58.544510,22.363049,-92.116295,-2.425240,2.124758,-3.832264,73.523666,-28.017897,-168.598175
627,292442737,-56.961998,19.225037,-93.883568,-2.258614,0.413440,-4.211624,132.830688,-19.233364,-211.702133
628,292459404,-54.321915,15.593222,-96.262840,-1.921302,-1.681432,-4.949775,201.316833,-13.126501,-256.342194
629,292476071,-50.517506,11.541447,-99.212517,-1.105849,-4.193642,-5.786582,269.920563,-14.494723,-297.183563
630,292492738,-45.637707,7.172127,-102.684837,0.262222,-8.139744,-5.437955,326.718292,-24.750620,-332.032806
631,292509405,-40.078575,2.655577,-106.855919,1.557474,-14.699798,-2.957469,354.951233,-31.552784,-366.748718
632,292526072,-34.577244,-1.546350,-111.561951,0.396573,-22.252695,2.108756,332.755768,-31.732018,-377.012115
633,292542739,-30.245987,-4.771076,-116.143692,-3.380450,-26.397366,5.531007,244.785675,-18.694305,-334.972778
634,292559406,-28.408886,-6.827824,-119.612450,-4.637094,-21.518892,5.125082,89.405235,-8.683556,-240.447006
635,292576073,-29.599779,-7.956028,-121.412613,-3.209170,-11.389084,4.940276,-85.093719,-9.789283,-125.976463
636,292592740,-31.854223,-8.167168,-121.009087,-2.237751,-2.432218,4.197154,-131.625824,-25.660204,14.668342
637,292609407,-33.213402,-7.542790,-118.904594,-0.959560,-3.193285,3.977843,-64.038902,-38.207657,126.135277
638,292626074,-34.378159,-6.275417,-116.025627,-0.408106,-7.490487,3.914162,-48.842392,-34.720348,185.333405
639,292642741,-35.878014,-4.579284,-112.831581,-1.718845,-9.648110,2.622079,-71.590378,-29.079729,215.124817
640,292659408,-37.202766,-2.570795,-109.507309,-3.104977,-10.982512,0.771113,-66.772453,-24.233654,232.223267
641,292676075,-38.360737,-0.265470,-105.969429,-2.518432,-11.910150,0.069260,-63.945843,-23.221354,252.999802
642,292692742,-39.996376,2.178038,-102.306686,-0.486804,-12.281025,-0.085814,-101.507370,-27.694139,263.506714
643,292709409,-42.564037,4.534965,-98.851936,1.179149,-11.180387,-0.617322,-165.873520,-32.760227,249.379776
644,292726076,-45.885204,6.766142,-95.522507,0.742758,-8.565598,-0.821160,-218.601074,-45.223167,236.431046
645,292742743,-49.042664,8.944682,-92.419724,-0.770976,-6.781320,0.003438,-214.563599,-50.016045,221.601410
646,292759410,-51.464279,11.154881,-89.634132,-1.424616,-5.369270,1.018230,-174.151031,-44.227985,207.793961
647,292776077,-53.016697,13.395156,-87.298317,-1.064466,-4.152386,1.355673,-122.643974,-28.435629,190.731430
648,292792744,-53.817638,15.735390,-85.530579,-1.073286,-3.627372,1.171621,-74.443192,-1.220536,174.539032
649,292809411,-54.070610,18.383875,-84.469131,-1.014085,-3.393801,1.228998,-33.576134,41.835690,164.917191
650,292826078,-53.915096,20.692400,-83.947044,-0.443104,0.194829,0.692072,-0.861928,55.076797,130.020554
651,292842745,-54.173153,23.124559,-84.295601,-0.459161,0.507913,0.295351,-7.391779,98.918861,107.345917
652,292859412,-54.183456,25.511362,-85.036186,-1.253645,3.507304,1.294797,17.967903,114.173676,93.027634
653,292876079,-54.181965,27.549065,-86.479210,-0.008009,5.034393,0.570363,39.048061,131.879700,54.409428
654,292892746,-54.684864,29.160185,-88.566719,0.689496,6.137280,0.166796,29.596228,143.392136,15.113035
655,292909413,-55.857018,30.498127,-91.176216,0.667601,6.667421,0.086994,7.840850,154.856430,-10.820200
656,292926080,-57.503143,31.642887,-94.261139,0.693812,7.473485,-0.268653,-2.946991,167.693634,-29.121311
657,292942747,-59.436684,32.604134,-97.692062,0.481558,8.231416,-1.046840,-6.253552,176.235580,-41.446705
658,292959414,-61.422329,33.339584,-101.195572,-0.024831,9.100776,-1.709274,-4.444857,172.622055,-48.090851
659,292976081,-63.211788,33.913925,-104.433617,-0.333559,10.391070,-2.290891,0.506506,156.721420,-44.087784
660,292992748,-64.571770,34.355232,-107.118889,0.529421,11.482526,-2.531411,9.084570,128.855270,-34.364223
661,293009415,-65.433105,34.691448,-109.096321,2.168177,11.475559,-2.056551,15.830849,94.562416,-22.489487
662,293026082,-65.882690,34.965694,-110.321106,4.035741,10.812083,-1.697021,15.262361,59.176575,-9.348263
663,293042749,-66.090912,35.194256,-110.802773,5.331450,9.821820,-1.570398,4.385922,24.612509,3.411165
664,293059416,-66.210533,35.360447,-110.611458,5.473556,8.945484,-1.391178,-13.538520,-7.115461,13.403714
665,293076083,-66.261024,35.535004,-109.949173,4.547296,8.427607,-1.166589,-25.808084,-27.983952,23.108418
666,293092750,-66.172401,35.776188,-108.941177,3.491293,8.534212,-0.608897,-29.669834,-41.713272,33.524879
667,293109417,-65.859917,36.129719,-107.690010,2.760276,8.704561,0.211002,-25.060425,-49.485222,44.537136
668,293126084,-65.210022,36.573818,-106.195473,2.236898,8.732762,0.698682,-13.897202,-57.293774,54.604218
669,293142751,-64.284767,36.957676,-104.428864,2.027698,8.813428,0.668126,-7.668113,-69.567078,57.485661
670,293159418,-63.338799,37.116333,-102.430656,2.152719,8.935204,0.514505,-15.197850,-84.280403,51.200493
671,293176085,-62.531464,36.947224,-100.292725,1.877371,8.807467,0.585965,-28.560665,-98.408943,37.970688
672,293192752,-61.810017,36.448128,-98.154488,0.610935,8.334850,1.241858,-33.129887,-107.560310,21.947063
673,293209419,-61.064213,35.590286,-96.133339,-0.943009,8.030002,1.392296,-26.316181,-113.372993,2.092395
674,293226086,-60.072552,34.314388,-94.303665,-2.501597,7.645977,0.841253,-3.150690,-118.609772,-22.062132
675,293242753,-58.600758,32.610855,-92.782288,-3.782132,6.504951,0.231785,38.214977,-120.268074,-48.689358
676,293259420,-56.329491,30.518686,-91.756683,-4.292101,5.238458,-0.245126,104.294052,-114.376900,-77.238350
677,293276087,-53.154430,28.131876,-91.342880,-4.033634,4.894958,-1.380665,178.568878,-103.026474,-104.056137
678,293292754,-49.132305,25.430952,-91.548172,-3.279099,4.468125,-3.156992,247.092453,-95.813057,-132.718704
679,293309421,-44.448994,22.325533,-92.349823,-0.852775,3.319340,-4.529812,300.664520,-98.240578,-165.554474
680,293326088,-39.722366,18.703445,-93.651321,3.387641,0.229729,-4.097923,311.136383,-115.004211,-199.575058
681,293342755,-36.294144,14.522323,-95.547600,6.984555,-4.043041,-3.078372,238.397461,-133.234177,-239.990753
682,293359422,-34.616135,9.806170,-98.134232,5.578354,-9.465997,-2.638287,133.593872,-145.141953,-287.301056
683,293376089,-33.844498,4.781644,-101.458221,0.785530,-14.559611,-2.225263,71.856987,-140.551025,-332.704010
684,293392756,-31.861097,0.200075,-105.594948,-4.267283,-19.111509,1.986540,129.950150,-98.944252,-356.982269
685,293409423,-27.755800,-3.051439,-110.223618,-7.966876,-21.867458,7.627666,239.480072,-33.796131,-337.446655
686,293426090,-22.713211,-4.633038,-114.378357,-6.808578,-19.954554,8.151455,285.975067,17.643274,-265.006683
687,293442757,-19.554102,-5.076762,-117.118057,-3.220006,-15.225990,4.085505,175.869370,31.663460,-161.874084
688,293459424,-19.387611,-5.057499,-118.101936,0.218297,-10.416857,0.283773,5.041746,18.146637,-54.529678
689,293476091,-21.489439,-4.866862,-117.421577,0.461734,-7.125715,0.339729,-122.320045,-6.010120,42.627281
690,293492758,-24.324684,-4.418131,-115.487396,-2.197280,-6.152207,2.122147,-160.454254,-22.745293,117.564209
691,293509425,-26.544577,-3.518155,-112.785118,-3.149440,-7.680941,2.800117,-121.697021,-23.222692,169.796677
692,293526092,-28.046684,-2.135065,-109.686714,-2.342243,-9.591052,1.482191,-80.681908,-13.919381,203.594452
693,293542759,-29.426331,-0.425788,-106.318924,-1.154645,-10.537833,-0.139169,-77.981857,-9.710893,226.985321
694,293559426,-31.330881,1.435192,-102.864693,0.369086,-11.076534,-0.696133,-115.800644,-10.978076,235.815994
695,293576093,-34.007626,3.306220,-99.608871,1.762042,-10.969447,-0.606231,-168.375870,-13.334205,225.478821
696,293592760,-36.949978,5.279007,-96.585030,0.589981,-9.698607,-0.068065,-189.813477,-11.076933,216.621368
697,293609427,-39.583031,7.503170,-93.862946,-1.147014,-8.788363,0.634557,-175.861603,1.810716,210.685867
698,293626094,-41.538540,10.044570,-91.596939,-2.197577,-8.325402,0.834765,-137.776901,26.040707,201.844833
699,293642761,-42.819496,12.900706,-89.824417,-2.629997,-7.131579,0.289642,-97.722878,54.592178,192.924591
700,293659428,-43.394920,16.003363,-88.520645,-2.484220,-5.262984,-0.034165,-53.763252,81.734390,183.153107
701,293676095,-43.347702,19.281309,-87.635117,-2.398823,-3.059879,0.521596,-12.987496,105.794220,172.507965
702,293692762,-42.800648,22.567616,-87.203094,-2.128844,-1.036394,0.973778,23.847378,125.100037,152.993744
703,293709429,-42.048882,25.736502,-87.343414,-1.840145,0.384454,0.502048,48.834469,143.133865,123.247101
704,293726096,-41.299942,28.695347,-88.149185,-1.751927,2.453748,-0.341522,67.335953,158.790817,86.569649
705,293742763,-41.078499,31.396143,-89.778313,-1.348995,3.978399,-1.296161,62.525063,175.259842,43.674732
706,293759430,-41.548702,33.724781,-92.228951,-1.215935,5.944640,-1.613361,51.225521,184.327301,-0.218633
707,293776097,-42.483337,35.615807,-95.380844,-1.178626,8.200332,-0.866461,51.803780,185.948822,-38.992096
708,293792764,-43.577293,37.058826,-98.998756,0.146821,9.971750,0.080372,63.287804,180.143753,-68.129150
709,293809431,-44.877289,38.060108,-102.886055,2.656064,10.937377,0.238216,64.475662,169.526398,-89.974327
710,293826098,-46.424240,38.619072,-106.791496,5.229458,11.700094,-1.017713,52.830345,152.375488,-103.889771
711,293842765,-48.044697,38.737720,-110.446770,6.049343,13.377295,-2.600031,40.114910,128.022888,-110.434929
712,293859432,-49.630737,38.392807,-113.387405,4.914420,15.545909,-3.279658,15.102284,87.725067,-105.813797
713,293876099,-50.438370,37.763226,-115.072334,1.497101,15.474514,-1.465937,14.154263,34.190941,-79.528145
714,293892766,-49.782051,37.339054,-115.388878,0.461942,13.201661,0.397228,51.223053,-7.335797,-28.663296
715,293909433,-47.957817,37.328705,-114.567986,3.418710,10.488873,0.162040,79.859520,-32.499344,25.802975
716,293926100,-46.036125,37.590908,-112.990349,5.997132,8.764540,-0.666701,58.005028,-46.832314,63.246727
717,293942767,-44.683945,37.836273,-110.817459,5.994163,8.711308,-1.081216,1.648864,-65.666115,83.417419
718,293959434,-44.102989,37.894848,-108.237038,4.888571,8.882905,-0.915293,-59.905903,-85.630913,90.247330
719,293976101,-44.053921,37.699501,-105.402046,3.396823,9.156853,-0.151654,-101.035347,-104.565666,88.837875
720,293992768,-44.045074,37.259167,-102.494858,1.168939,8.755374,0.445348,-105.342461,-117.888290,81.540077
721,294009435,-43.559280,37.034550,-99.714790,-0.721250,7.556911,2.026526,-71.323662,-104.427856,87.032951
722,294026102,-42.346745,36.985374,-97.194572,-0.435920,6.218028,3.073607,-18.024843,-87.123787,86.759064
723,294042769,-40.979713,36.726814,-95.118134,0.588643,4.972484,2.914937,7.537775,-80.556351,64.551300
724,294059436,-39.937565,36.064156,-93.604286,0.978785,4.744803,2.802092,8.875745,-80.405823,30.218725
725,294076103,-39.307453,34.976971,-92.709198,0.614311,4.633357,2.002134,6.841344,-80.842308,-7.544742
726,294092770,-38.863937,33.438843,-92.361420,0.210917,4.463741,0.352165,15.116742,-85.245079,-44.409496
727,294109437,-38.431465,31.443130,-92.502800,0.040632,3.621088,-1.202950,30.734701,-91.787842,-79.996742
728,294126104,-37.948193,28.989151,-93.125130,-0.039084,2.979257,-2.206760,48.026173,-98.517838,-116.015503
729,294142771,-37.340347,26.042953,-94.238396,-0.151736,1.834419,-3.315253,67.570038,-106.534950,-154.490387
730,294159438,-36.445118,22.623091,-95.881088,-0.362256,-0.105493,-4.333588,94.564049,-112.932495,-194.619293
731,294176105,-34.957050,18.808920,-98.115440,-0.411711,-2.631687,-4.456524,136.932236,-115.394928,-234.986053
732,294192772,-32.831966,14.722400,-100.972763,-0.266338,-5.867411,-4.472565,177.160843,-114.681511,-272.603394
733,294209439,-30.055557,10.499319,-104.412514,-0.983715,-9.793485,-3.823551,211.810913,-113.773529,-303.618927
734,294226106,-26.540190,6.329478,-108.263298,-2.357485,-13.574357,-2.351238,244.852371,-114.569580,-319.458740
735,294242773,-22.199484,2.474289,-112.247131,-3.884513,-16.727379,0.131063,278.876404,-114.967697,-312.145325
736,294259440,-17.467037,-0.710361,-115.858932,-5.523888,-18.433754,3.770670,287.399414,-108.825737,-268.246948
737,294276107,-12.961862,-2.925025,-118.615211,-5.510051,-16.419954,5.900328,265.255005,-87.429787,-193.909775
738,294292774,-9.849727,-3.904350,-120.026031,-4.256555,-11.452409,3.803113,181.939957,-43.443310,-93.941742
739,294309441,-8.777376,-4.060782,-119.922020,-2.131309,-7.783748,0.659593,65.037483,-12.795959,5.148739
740,294326108,-9.650384,-3.847047,-118.563004,0.633319,-7.788795,0.171029,-46.495712,-2.877473,82.874229
741,294342775,-12.159348,-3.422936,-116.171188,0.685458,-8.029166,2.502657,-141.166031,-4.608549,145.981659
742,294359442,-15.727596,-2.654670,-113.055443,-1.628788,-8.723641,3.767793,-203.885513,-2.742511,192.839218
743,294376109,-19.725014,-1.512812,-109.519241,-2.720838,-10.521940,2.826504,-231.803543,-1.788176,223.392975
744,294392776,-23.721832,-0.032451,-105.826553,-2.733947,-11.744503,1.773577,-236.478470,-1.961268,239.263107
745,294409443,-27.167238,1.847330,-102.201576,-3.498270,-11.684792,1.204119,-209.831894,5.947413,245.422119
746,294426110,-29.538595,4.080334,-98.706688,-3.609267,-10.648137,1.164403,-152.803177,16.005051,248.504120
747,294442777,-30.966192,6.571913,-95.442329,-2.304096,-9.601212,0.818559,-103.530769,28.445021,244.364471
748,294459444,-32.169777,9.119260,-92.500084,-0.149950,-8.022778,0.462592,-96.006004,36.247780,229.617279
749,294476111,-33.695381,11.588882,-90.030029,1.759226,-6.240476,0.476811,-117.859093,42.702366,203.536331
750,294492778,-35.765930,14.038064,-88.074181,2.286806,-4.886554,0.506269,-149.939774,53.186943,178.388565
751,294509445,-38.424244,16.599426,-86.665291,1.818542,-3.878129,0.382268,-181.507065,71.025078,158.364166
752,294526112,-41.831944,19.204693,-85.904144,1.898760,-1.850691,-0.031535,-218.171936,89.135994,134.627289
753,294542779,-46.464138,21.305265,-86.126831,1.999858,0.571126,-0.822777,-272.985077,96.797333,79.448143
754,294559446,-52.377285,23.533144,-87.359047,-0.445251,1.003943,-0.499594,-326.249146,136.502716,57.725338
755,294576113,-58.619335,25.622898,-89.500435,-1.547785,3.080351,-0.224171,-320.720764,164.935089,37.798847
756,294592780,-64.982330,27.423876,-92.542160,-1.649807,4.434527,-1.284181,-299.897980,192.568390,18.704023
757,294609447,-71.410080,28.913530,-96.462288,-2.006397,5.588705,-2.206571,-274.218536,223.273132,6.587129
758,294626114,-77.535820,30.099838,-100.988663,-2.781563,7.016479,-2.032301,-233.357513,244.302094,5.915168
759,294642781,-82.950279,31.044184,-105.950119,-4.363977,8.893254,-1.596123,-173.036255,259.674561,12.998669
760,294659448,-87.101921,31.765404,-110.979019,-4.918949,12.183286,-0.001036,-91.486588,257.747284,21.366745
761,294676115,-89.593903,32.197617,-115.461594,-2.304209,16.750965,0.018096,-6.744538,226.193573,19.923050
762,294692782,-90.449799,32.328690,-118.689522,3.336056,20.314596,-1.794538,52.319626,161.170776,8.489211
763,294709449,-90.438805,32.166935,-120.310532,8.806221,18.727262,-2.894008,52.847687,79.730537,-8.536529
764,294726116,-90.276970,31.800522,-120.657249,10.572119,13.663533,-1.936664,21.023043,15.181774,-21.384741
765,294742783,-89.948746,31.504709,-120.253365,9.243609,10.133389,0.132977,7.269848,-23.183867,-17.330116
766,294759450,-89.326111,31.579247,-119.352104,6.462673,9.673978,1.380225,9.357047,-48.637928,5.197701
767,294776117,-88.277855,32.067276,-117.911446,3.567940,10.290599,2.028444,17.597824,-75.395882,31.223831
768,294792784,-87.027908,32.817421,-115.889366,2.397594,10.136272,1.803287,10.190234,-103.039436,49.557137
769,294809451,-85.898666,33.804550,-113.411400,2.443089,9.658321,2.051825,-13.620131,-122.943779,67.154160
770,294826118,-84.951920,34.911572,-110.577240,2.848946,9.097216,2.703462,-38.893696,-137.221573,77.761101
771,294842785,-84.174446,35.823185,-107.426315,2.914618,8.441293,2.584094,-62.512871,-150.875885,69.402000
772,294859452,-83.507141,36.245018,-104.062790,2.192088,7.092720,2.931321,-78.417961,-162.121216,43.014549
773,294876119,-82.755875,36.096104,-100.805359,0.924392,5.461917,3.700556,-70.019226,-160.285553,10.342599
774,294892786,-81.674255,35.450832,-98.070534,-0.316747,4.266454,4.113670,-30.781183,-139.726059,-19.976273
775,294909453,-80.038673,34.346790,-96.042709,-1.664615,3.657324,3.132251,28.762264,-111.629181,-49.193848
776,294926120,-77.814079,32.727318,-94.698700,-2.291679,2.925440,1.086717,89.156548,-87.225227,-82.100311
777,294942787,-75.216423,30.557487,-94.055321,-2.160610,2.309659,-0.769648,135.835876,-64.926262,-118.591522
778,294959454,-72.198753,27.840950,-94.103180,-1.716805,1.082226,-1.775195,182.676407,-45.941261,-156.807358
779,294976121,-68.540611,24.674440,-94.872711,-1.677202,-0.571860,-2.556750,240.114136,-27.450224,-192.527390
780,294992788,-63.832108,21.145288,-96.399849,-1.908949,-2.038718,-3.654352,318.341003,-10.906465,-227.487534
781,295009455,-57.931274,17.372147,-98.665810,-2.018808,-3.705612,-5.029119,398.999847,-0.644764,-259.960266
782,295026122,-51.092979,13.492510,-101.543671,-1.085558,-5.761706,-6.506561,456.289703,-2.205868,-285.922760
783,295042789,-43.888359,9.583921,-104.918358,1.317033,-8.889672,-7.505372,472.776672,-14.804203,-306.695221
784,295059456,-37.328823,5.679266,-108.966080,4.770916,-13.738533,-7.262858,425.797119,-23.728737,-334.944641
785,295076123,-32.818256,1.692096,-113.068634,5.708816,-19.359985,-3.194634,286.503906,-57.154373,-338.105347
786,295092790,-31.500402,-2.017714,-116.818298,0.954527,-23.272316,1.384893,78.624603,-71.185547,-308.447784
787,295109457,-33.377914,-4.897814,-119.636574,-4.907777,-19.896982,2.197701,-122.575272,-57.822456,-234.655090
788,295126124,-37.264599,-6.761765,-121.128639,-6.514248,-11.270052,1.461570,-242.040604,-42.291008,-136.837082
789,295142791,-41.456089,-7.487114,-120.915466,-5.420143,-4.129414,1.995540,-249.680298,-44.225197,-17.261103
790,295159458,-44.880203,-7.122662,-119.166138,-3.942832,-3.919804,2.876181,-191.857910,-57.796650,91.442993
791,295176125,-47.944927,-5.871131,-116.434608,-3.971463,-6.943845,2.756812,-165.063614,-68.703705,167.218567
792,295192792,-50.939690,-4.120416,-113.147095,-5.210759,-9.407633,1.880631,-162.207367,-83.526237,208.137009
793,295209459,-53.629730,-1.941836,-109.573990,-6.107889,-11.585627,1.535367,-149.748398,-91.931114,234.936630
794,295226126,-55.827427,0.682989,-105.936874,-4.710058,-13.259730,0.777535,-129.143814,-89.751511,255.162216
795,295242793,-57.627514,3.656913,-102.550453,-2.238863,-12.399551,-0.606440,-115.384583,-74.393517,261.169891
796,295259460,-59.370312,6.704815,-99.622528,-0.508752,-8.989461,-0.932344,-120.121361,-56.135677,247.957230
797,295276127,-61.143772,9.595619,-97.182846,0.276420,-5.947990,-0.621847,-126.854889,-42.263996,223.117310
798,295292794,-62.759476,12.270945,-95.266029,0.487643,-4.046127,-0.272826,-118.457909,-26.671110,195.406448
799,295309461,-64.177330,14.796230,-93.840973,0.222245,-3.585493,-0.012191,-104.789719,-9.180051,173.341354
800,295326128,-65.433159,17.214893,-93.034859,0.372667,-3.606624,-0.378509,-88.399544,17.222212,151.754990
801,295342795,-66.689018,19.604601,-93.003517,0.359920,-2.820699,-0.588675,-75.660072,54.064278,132.421921
802,295359462,-67.966225,22.009861,-93.850510,-0.483361,-1.864268,-0.175769,-58.292522,96.982246,115.496147
803,295376129,-69.254379,24.343737,-95.621384,-1.251572,-0.543110,0.113280,-35.183933,139.531784,95.396202
804,295392796,-70.603394,26.395693,-98.219757,-2.169663,1.199794,0.350973,-13.856076,172.062897,67.917427
805,295409463,-72.255295,27.995296,-101.441971,-2.125375,3.223311,0.308544,-10.463829,191.058838,36.826992
806,295426130,-74.447121,28.945936,-105.164726,-1.206073,5.688598,-0.219269,-24.730495,201.937836,-0.993738
807,295442797,-77.496826,29.257704,-109.143440,-0.122862,8.599743,-0.634376,-66.562279,204.368530,-31.795555
808,295459464,-80.848862,29.084871,-113.072365,-1.040019,10.899209,0.456448,-85.902626,197.685684,-48.234882
809,295476131,-83.839684,28.733227,-116.620766,-1.889087,13.613500,2.043262,-76.222054,179.347427,-45.137840
810,295492798,-85.832611,28.416508,-119.415749,-1.039658,16.518963,1.718995,-39.079563,142.398880,-31.602346
811,295509465,-86.758263,28.224541,-120.958160,1.786172,18.130783,0.740993,-11.353702,77.974953,-16.203384
812,295526132,-86.869629,28.164104,-121.036652,6.188844,15.782337,0.329347,-4.169658,1.353497,-3.324259
813,295542799,-86.756264,28.320553,-120.067772,9.506453,11.815907,0.203778,-20.414824,-53.202942,12.718914
814,295559466,-86.589897,28.759783,-118.533318,10.380427,8.835055,-0.044089,-33.713913,-81.799187,31.476456
815,295576133,-86.529953,29.561438,-116.676598,8.605934,7.983364,-0.124137,-50.403500,-96.800072,54.298164
816,295592800,-86.454033,30.616005,-114.439621,5.746857,8.464690,0.179643,-62.457882,-114.610085,70.688484
817,295609467,-86.121880,31.675955,-111.704041,3.322227,8.690681,0.408185,-64.696358,-138.625824,72.964607
818,295626134,-85.335609,32.664803,-108.492615,1.562724,7.949072,1.338223,-55.157768,-160.789810,71.704720
819,295642801,-84.048508,33.646023,-105.097717,1.153465,6.884252,1.988049,-33.932861,-166.916977,74.775146
820,295659468,-82.397194,34.688156,-101.895699,1.395741,6.620300,2.191430,-8.581024,-153.036560,81.220238
821,295676135,-80.530838,35.540119,-98.947510,1.501570,7.014085,1.907489,10.467703,-138.073227,72.399818
822,295692802,-78.779854,35.872326,-96.188148,1.209237,6.659214,1.293794,8.667292,-131.246735,44.122829
823,295709469,-77.264244,35.575230,-93.616699,0.352310,5.769161,1.323873,1.087022,-128.799637,8.932590
824,295726136,-75.890015,34.728756,-91.426857,-0.598687,4.483153,1.333441,7.036424,-118.858162,-24.087984
825,295742803,-74.482613,33.523724,-89.774727,-1.481367,3.443791,1.167796,29.061386,-100.399261,-48.544487
826,295759470,-72.930855,32.014557,-88.675232,-1.912534,2.895634,0.309548,57.627270,-81.239250,-70.978729
827,295776137,-71.161392,30.176834,-88.151413,-1.705069,2.029134,-0.320229,90.161278,-62.192131,-96.227135
828,295792804,-69.033997,28.077200,-88.265289,-1.172050,0.792803,-0.745346,131.194260,-39.883545,-120.116272
829,295809471,-66.310211,25.776346,-89.121918,-1.031801,0.218658,-1.096103,186.920441,-12.672118,-144.743912
830,295826138,-62.785164,23.228163,-90.606895,-1.092422,0.002910,-2.150817,248.656677,4.884593,-172.535400
831,295842805,-58.491253,20.393131,-92.665741,-0.594859,-0.733377,-3.662919,303.709076,13.937137,-204.136108
832,295859472,-53.688251,17.269855,-95.230408,0.645243,-1.847548,-5.585967,337.998627,13.718887,-236.438919
833,295876139,-49.013008,13.768419,-98.130669,2.914491,-3.524235,-7.399689,327.199249,-2.858594,-268.447266
834,295892806,-45.323666,9.762879,-101.304230,4.948365,-6.717994,-7.463089,260.313721,-29.265076,-302.592529
835,295909473,-42.839386,5.280840,-104.883003,3.769783,-11.948282,-4.661852,177.308807,-47.621437,-339.571930
836,295926140,-40.595169,0.829774,-108.962357,-1.255304,-16.976112,-0.181445,147.828964,-39.196026,-359.694336
837,295942807,-37.425339,-2.740063,-113.380440,-6.944449,-19.106087,3.656731,185.859421,-2.082007,-340.306793
838,295959474,-33.454044,-4.897081,-117.471252,-8.006227,-16.401369,3.438720,222.043137,34.052498,-274.102020
839,295976141,-30.507494,-5.948151,-120.279442,-4.622670,-11.479715,2.203232,161.071243,32.817833,-175.174896
840,295992808,-29.871750,-6.237829,-121.252907,-2.618325,-6.400842,2.365928,32.185429,11.652268,-58.413116
841,296009475,-30.613680,-6.021233,-120.412003,-0.942854,-4.122456,1.790486,-38.887653,-16.558435,50.413906
842,296026142,-31.936096,-5.435399,-118.405800,-1.481369,-5.056156,2.508331,-67.083267,-34.652908,121.147575
843,296042809,-33.441048,-4.527674,-115.922478,-2.614973,-6.529661,2.521565,-77.104553,-36.841301,154.875824
844,296059476,-34.734318,-3.265310,-113.121658,-3.571848,-7.534261,1.943581,-65.917709,-33.750511,181.846115
845,296076143,-35.922920,-1.667133,-109.938591,-3.795040,-8.860244,0.933059,-62.830841,-34.614418,211.669601
846,296092810,-37.304581,0.183138,-106.461365,-2.699450,-10.061329,0.798394,-79.915115,-37.816376,234.219040
847,296109477,-39.142262,2.161219,-102.893181,-1.440716,-10.255485,0.788632,-114.338837,-41.694775,242.163406
848,296126144,-41.565231,4.135310,-99.342766,-0.780381,-9.131563,0.550144,-156.756821,-49.950462,239.382294
849,296142811,-44.221664,6.067446,-95.913994,-0.626770,-7.746397,0.439575,-177.350693,-57.016479,229.640518
850,296159478,-46.578075,8.045708,-92.642456,-1.254672,-6.507219,0.362230,-165.173859,-57.830494,221.916077
851,296176145,-48.191185,10.168243,-89.699249,-1.556985,-5.517406,0.158005,-124.424522,-44.553860,212.404816
852,296192812,-49.055607,12.421398,-87.098152,-1.232320,-4.285189,0.425038,-82.126968,-27.934452,203.235245
853,296209479,-49.492542,15.160845,-85.001625,-1.452006,-4.010060,1.391269,-55.897812,12.202920,204.907104
854,296226146,-49.145309,17.499033,-83.270058,0.054741,-0.025542,0.723846,-8.076469,13.391131,172.026779
855,296242813,-48.890617,19.846617,-82.297501,-0.250826,-1.906400,0.163421,-3.094686,48.196125,143.236450
856,296259480,-48.268356,22.649763,-81.784569,-2.069275,-0.279570,0.639165,26.483862,87.317078,145.748810
857,296276147,-47.668076,25.349234,-81.967049,-1.050735,1.833830,-1.183428,40.777622,113.427467,114.258347
858,296292814,-47.889191,27.720798,-82.860558,0.387763,3.955393,-2.147027,10.999942,128.685349,73.790726
859,296309481,-49.245266,29.822474,-84.453156,0.690697,5.107128,-1.655309,-35.046631,143.777893,39.748592
860,296326148,-51.627068,31.697714,-86.784233,2.102490,7.325338,-1.965495,-71.043053,161.837723,10.810706
861,296342815,-55.150486,33.149055,-89.822372,3.751339,9.134185,-3.391953,-113.325569,172.950424,-21.256090
862,296359482,-59.965286,33.900951,-93.432014,4.552474,10.190030,-5.340543,-168.918686,174.071335,-58.184654
863,296376149,-65.887123,33.852154,-97.351273,5.148435,10.201308,-5.542798,-223.865051,170.020279,-90.882225
864,296392816,-72.469177,33.085506,-101.234947,5.151295,10.204941,-4.359712,-266.040863,162.853912,-111.523438
865,296409483,-78.919525,31.926603,-104.679703,3.230268,9.710709,-2.197743,-275.596954,149.227798,-109.901337
866,296426150,-84.273468,30.880747,-107.401024,0.398389,9.376085,1.830299,-235.849060,126.184669,-81.916870
867,296442817,-87.646141,30.373680,-109.214546,-0.731244,10.038786,4.876972,-146.654510,88.716995,-36.433010
868,296459484,-88.823372,30.485214,-110.076271,0.025863,10.685519,5.843151,-44.183296,42.210918,5.807225
869,296476151,-88.205627,31.015305,-110.015884,1.591673,10.756779,5.755264,35.481606,-4.852544,32.347057
870,296492818,-86.108421,31.859623,-109.146904,2.499764,9.670764,4.704567,98.906433,-44.492073,53.253391
871,296509485,-83.094780,32.967167,-107.793053,3.019608,8.686390,3.358874,137.537460,-64.601631,73.038727
872,296526152,-79.496223,34.258106,-106.121132,3.297347,8.532763,2.026355,160.632614,-73.451210,89.621368
873,296542819,-75.689316,35.545078,-104.131233,3.527195,9.452450,1.072411,160.339386,-81.643311,96.844612
874,296559486,-72.029198,36.491169,-101.756920,3.658522,10.235205,0.161270,136.071289,-97.516121,86.932663
875,296576153,-68.819016,36.883404,-99.112831,2.873103,10.213601,-0.206689,98.060852,-114.595589,65.147728
876,296592820,-66.134117,36.610981,-96.423538,1.778502,9.249786,-0.425428,64.786728,-128.315002,34.766785
877,296609487,-64.033607,35.694271,-94.037590,0.882427,7.661666,-0.440220,41.802013,-130.638123,-0.856430
878,296626154,-62.362045,34.214157,-92.237663,-0.080863,5.941844,-0.630260,38.644451,-121.698265,-39.033756
879,296642821,-60.837978,32.275356,-91.144638,-0.905415,4.605685,-1.041219,55.708637,-106.240593,-75.932343
880,296659488,-59.149937,29.922140,-90.777443,-1.682004,3.595542,-1.740530,90.117081,-89.627457,-112.531975
881,296676155,-57.055656,27.207293,-91.189827,-1.834646,2.473832,-2.615202,137.697433,-70.316704,-149.480240
882,296692822,-54.369587,24.248182,-92.391174,-1.647811,1.269617,-2.701519,192.657776,-49.077473,-182.979996
883,296709489,-50.868946,21.055489,-94.309509,-0.862257,-0.069604,-3.116755,254.553101,-34.606647,-216.421204
884,296726156,-46.667717,17.648848,-96.855247,0.256038,-1.597072,-4.617978,302.847107,-29.052824,-248.422318
885,296742823,-42.020668,13.930306,-99.909019,2.075974,-3.928358,-6.102938,328.802887,-39.027809,-281.760132
886,296759490,-37.727966,9.773477,-103.456787,3.940491,-8.752460,-5.453215,301.380371,-60.529076,-319.473511
887,296776157,-34.477478,5.226916,-107.650162,3.416009,-15.214311,-2.664907,227.973251,-76.032501,-361.924561
888,296792824,-32.029991,0.710556,-112.285431,-1.701548,-20.044737,0.355241,161.373306,-76.855461,-380.441956
889,296809491,-29.144615,-2.937899,-117.181564,-8.230744,-21.567528,3.752367,167.510162,-41.515633,-363.799622
890,296826158,-25.750162,-5.040891,-121.348846,-9.918482,-18.524126,5.644091,186.419235,0.436390,-279.048889
891,296842825,-24.258974,-5.948756,-123.842094,-5.493932,-13.150923,3.924196,75.389587,11.018267,-157.468521
892,296859492,-25.779762,-6.310735,-124.132240,-2.460765,-7.049434,0.504453,-92.852470,-14.893550,-24.347689
893,296876159,-28.516113,-6.414267,-122.537514,-1.364200,-3.591595,0.387676,-153.318008,-51.437504,82.320641
894,296892826,-30.814487,-6.109869,-120.010689,-3.053237,-4.277069,3.194348,-121.095268,-61.234921,140.537521
895,296909493,-31.818184,-5.308374,-117.381569,-2.295732,-7.031837,2.886111,-44.267788,-43.006168,159.638275
896,296926160,-31.653246,-4.009781,-114.605713,-2.833164,-8.470638,1.476604,23.670773,-23.547056,182.716949
897,296942827,-30.901781,-2.291897,-111.595192,-3.048748,-10.185977,0.652020,55.249832,-8.029937,208.223724
898,296959494,-30.542633,-0.350457,-108.288399,-1.341921,-11.557293,0.460394,26.366234,-3.666553,230.601746
899,296976161,-31.349155,1.585730,-104.946014,-0.089180,-11.630436,0.491280,-50.284672,-5.922708,232.310150
900,296992828,-33.387878,3.453708,-101.773811,-0.095986,-10.324701,0.670686,-130.400223,-9.542080,221.223022
901,297009495,-36.088379,5.327828,-98.929436,-0.760968,-8.812160,1.113891,-174.795761,-6.937640,204.551254
902,297026162,-38.538933,7.286467,-96.488220,-1.536738,-7.566053,0.475264,-162.828659,2.855522,187.688812
903,297042829,-40.399086,9.508260,-94.402573,-2.470304,-6.516687,0.549783,-129.588562,21.872356,180.982346
904,297059496,-42.061028,11.898596,-92.787621,-2.101996,-5.115020,-0.001591,-117.410080,42.777050,166.832077
905,297076163,-43.953011,14.101995,-91.951576,-0.216519,-2.643257,-0.714763,-124.491302,61.017822,126.636909
906,297092830,-46.160698,16.465796,-91.681488,-1.391835,-1.563611,0.411156,-136.417068,86.800652,112.162849
907,297109497,-47.811535,19.161629,-92.082405,-3.161892,0.086282,1.659576,-91.371162,124.755745,103.384644
908,297126164,-48.877331,22.000681,-93.316879,-3.346824,1.644574,1.135494,-37.588623,162.676575,81.921021
909,297142831,-49.955437,24.773048,-95.499451,-2.302664,3.140541,-0.094640,-12.377686,197.122437,48.860729
910,297159498,-51.352066,27.236456,-98.630798,-1.343025,5.723754,-0.976439,-1.088601,221.887177,7.954427
911,297176165,-53.257511,29.132824,-102.622963,-0.255946,8.143126,-1.159792,-0.854238,234.193832,-38.365097
912,297192832,-55.718525,30.429354,-107.167641,0.675987,9.616193,-1.577703,-11.879802,235.368240,-73.463425
913,297209499,-58.558834,31.127819,-111.929138,1.304990,11.077061,-1.826778,-23.884497,226.427444,-97.293938
914,297226166,-61.402794,31.261230,-116.509193,2.143150,12.179180,-1.385132,-27.977121,205.037384,-109.993225
915,297242833,-63.711479,31.035616,-120.496437,3.427373,12.434849,-0.478481,-14.471951,172.943604,-105.715500
916,297259500,-65.206543,30.755772,-123.550293,4.991165,12.355574,0.910999,4.663556,132.086578,-82.322540
917,297276167,-65.753395,30.622377,-125.501419,6.277179,11.655683,1.683928,27.212322,85.713524,-48.482727
918,297292834,-65.581779,30.751640,-126.367859,6.865757,10.293262,1.623171,37.106815,41.360493,-10.812972
919,297309501,-64.963402,31.133076,-126.288971,6.843546,9.285036,0.664997,34.950878,3.304731,22.992491
920,297326168,-64.222290,31.679876,-125.433601,6.776778,8.695508,-0.509217,18.005148,-28.081545,48.901871
921,297342835,-63.664192,32.245758,-123.955940,6.519597,8.643262,-1.470024,-13.164870,-55.258316,63.983559
922,297359502,-63.372185,32.739590,-121.982590,5.767053,9.152931,-1.381242,-45.801792,-78.781601,71.462975
923,297376169,-63.204155,33.142395,-119.625969,4.263337,9.481696,-0.718501,-66.525810,-97.751930,75.314827
924,297392836,-62.924683,33.516960,-116.961090,2.590714,9.564826,0.462094,-70.810295,-111.545952,80.915100
925,297409503,-62.432438,33.903049,-114.081497,1.669794,9.791277,1.475436,-66.080078,-119.694260,86.891602
926,297426170,-61.726830,34.089993,-111.018066,1.087122,9.759136,1.598751,-60.166809,-132.040421,81.595192
927,297442837,-61.049961,33.894520,-107.804504,0.523581,9.013470,1.477163,-66.923012,-148.614105,66.581329
928,297459504,-60.450706,33.297752,-104.538925,-0.542090,7.946440,2.439447,-72.201286,-162.551147,48.821472
929,297476171,-59.712780,32.400505,-101.495819,-1.835433,6.905808,3.783824,-54.511547,-162.472610,30.160910
930,297492838,-58.578129,31.341375,-98.956413,-3.220078,5.622469,4.311837,-12.125070,-146.353989,12.118225
931,297509505,-56.857773,30.107840,-97.030449,-4.028450,4.749005,3.315372,44.425560,-126.212158,-9.201597
932,297526172,-54.358112,28.623920,-95.776451,-4.119230,4.128829,1.354432,113.329338,-107.126572,-36.109879
933,297542839,-51.006706,26.770927,-95.184425,-3.306342,3.046987,-0.955853,184.820236,-95.161865,-69.023499
934,297559506,-47.235832,24.471764,-95.271561,-0.855601,1.751422,-2.766352,228.756821,-89.487610,-107.051857
935,297576173,-43.521507,21.645723,-96.107208,1.086599,-0.257212,-3.584245,242.729919,-89.039711,-152.750137
936,297592840,-40.122036,18.287203,-97.749062,2.556107,-3.199172,-4.149653,237.823853,-91.187141,-203.013779
937,297609507,-37.094913,14.475811,-100.234062,3.273650,-7.240824,-4.042562,223.876389,-92.154205,-254.110199
938,297626174,-34.470901,10.385625,-103.536789,2.837755,-11.716980,-3.449635,200.281555,-88.588547,-300.092316
939,297642841,-31.673155,6.324330,-107.555000,0.045585,-16.018314,-2.128642,203.042801,-76.620720,-332.451111
940,297659508,-27.978731,2.956138,-112.248611,-4.062818,-20.030016,1.596257,244.533066,-38.257824,-343.607666
941,297676175,-23.520247,0.926592,-116.788490,-7.837883,-20.888245,3.754969,276.829834,6.047268,-297.680695
942,297692842,-19.793667,0.108402,-120.256065,-5.829081,-16.698132,2.622637,225.655807,28.614235,-210.998474
943,297709509,-18.558365,-0.055875,-122.110535,-1.895012,-11.194725,0.895860,74.408638,24.718946,-107.807137
944,297726176,-19.465296,0.128261,-122.082802,-0.324277,-6.828361,-0.394065,-54.181679,7.404639,5.702978
945,297742843,-21.051283,0.508710,-120.640854,-0.646324,-5.479708,-0.438296,-95.406059,-11.030549,89.599213
946,297759510,-22.572920,1.247067,-118.442680,-2.285703,-6.785558,0.870696,-93.079773,-10.354553,139.428375
947,297776177,-23.809252,2.440131,-115.875610,-2.755592,-8.582828,0.752693,-78.893509,2.697794,170.233490
948,297792844,-24.812969,4.023437,-113.049278,-2.623061,-9.701050,-0.311897,-69.538795,14.400759,193.954422
949,297809511,-25.888720,5.852515,-109.967209,-2.203411,-10.352021,-1.327898,-80.210144,17.833939,214.036774
950,297826178,-27.318956,7.726779,-106.879662,-0.831237,-11.184383,-1.545144,-107.452309,15.727764,215.405045
951,297842845,-29.376047,9.591712,-103.819908,-0.059991,-10.765217,-1.084882,-150.789398,9.874688,213.445709
952,297859512,-31.784723,11.425411,-100.714859,-0.720392,-9.185108,-0.566714,-178.211502,-0.882343,214.273712
953,297876179,-34.141426,13.224465,-97.758408,-1.404975,-8.295753,-0.540327,-178.977280,-6.126529,204.746552
954,297892846,-36.319984,14.928176,-95.109589,-0.932883,-6.866912,-1.066690,-169.077667,-7.818861,185.512482
955,297909513,-38.407169,16.648090,-92.714943,-1.435297,-5.018167,-0.552129,-164.032013,-4.274580,173.151505
956,297926180,-40.349823,18.419767,-90.649612,-1.951459,-3.518573,0.054237,-153.595795,4.813477,159.420105
957,297942847,-41.862198,20.430470,-89.037956,-2.912353,-2.838997,0.740409,-122.603004,28.552904,148.682526
958,297959514,-42.933708,22.603804,-88.048355,-2.092959,-1.236148,0.569474,-85.765152,56.651207,129.373367
959,297976181,-43.893848,24.763163,-87.825661,-1.454636,0.369834,-0.103292,-62.668926,83.296837,98.587776
960,297992848,-45.233017,26.706179,-88.508499,-0.789640,1.969182,-0.750335,-62.250790,106.540192,56.164127
961,298009515,-47.124931,28.397671,-90.002625,-0.743627,4.139890,-0.698555,-71.736649,125.183655,18.839514
962,298026182,-49.572472,29.787247,-92.246742,-0.978085,5.372155,-0.817928,-81.069626,140.870590,-15.260147
963,298042849,-52.545788,30.862511,-95.253960,-0.704443,6.629335,-1.401351,-86.974648,159.211014,-47.078362
964,298059516,-55.978745,31.595978,-98.866310,0.023556,8.191749,-1.746490,-93.269424,173.643784,-71.908401
965,298076183,-59.611332,31.929878,-102.735405,0.785955,9.300517,-0.444834,-95.414551,175.175262,-87.626495
966,298092850,-63.123611,31.958975,-106.465073,0.585968,9.710334,1.388128,-92.010681,164.977203,-88.856415
967,298109517,-66.186310,31.951530,-109.896019,0.924912,10.430545,1.643636,-74.498238,155.112930,-74.580978
968,298126184,-68.348679,32.160618,-112.856033,1.157032,11.125350,2.166613,-35.186386,141.115677,-46.027451
969,298142851,-69.219452,32.791248,-115.101608,2.079589,12.057741,3.300978,20.383633,117.081085,-5.315898
970,298159518,-68.705894,33.859062,-116.287140,4.102609,12.484285,2.816173,70.173180,75.891457,38.988667
971,298176185,-67.087921,35.172806,-116.231064,6.791773,11.765753,1.657064,95.451874,24.495977,74.583939
972,298192852,-65.076447,36.443432,-115.055779,9.161819,10.343955,0.650000,79.705658,-23.970608,93.355904
973,298209519,-63.433605,37.492908,-113.050423,9.230098,9.203739,0.100584,26.480108,-61.844086,98.920586
974,298226186,-62.374874,38.333229,-110.465797,6.929122,8.640314,0.172934,-31.504053,-88.561539,101.031555
975,298242853,-61.678337,39.218266,-107.655602,3.896286,8.446410,0.844109,-63.548851,-93.790497,108.953896
976,298259520,-60.762451,40.178413,-104.743477,1.629814,8.183183,1.471059,-56.402363,-92.708855,115.599052
977,298276187,-59.530865,40.953686,-101.711990,0.771076,8.333653,1.451267,-44.147842,-99.298035,109.496437
978,298292854,-58.243477,41.316925,-98.631363,0.464198,8.515204,0.746149,-44.110111,-110.541000,90.964249
979,298309521,-57.114697,41.161991,-95.714676,0.171726,8.356803,-0.010652,-47.395710,-118.798195,62.875000
980,298326188,-56.310291,40.459091,-93.160294,-0.226232,8.375516,-0.435452,-51.663860,-122.741600,28.786171
981,298342855,-55.861698,39.182453,-91.039742,-0.814699,7.708434,-1.150986,-54.328884,-126.470680,-8.671224
982,298359522,-55.756248,37.385113,-89.443291,-1.460172,6.928954,-1.804926,-52.784908,-125.439240,-46.583050
983,298376189,-55.810356,35.093014,-88.421860,-2.087787,6.107992,-2.507322,-39.238956,-120.863602,-85.564796
984,298392856,-55.752140,32.351280,-88.015343,-2.453884,4.479516,-2.825814,-9.812134,-111.949959,-124.258614
985,298409523,-55.318428,29.284960,-88.271301,-2.387777,2.706042,-2.519957,34.126041,-95.913361,-158.787552
986,298426190,-54.230976,26.020906,-89.233223,-2.332386,1.141898,-2.269063,92.265938,-73.872414,-189.102509
987,298442857,-52.219994,22.623110,-90.944344,-2.089345,-0.052034,-2.625082,163.163651,-49.777180,-218.940125
988,298459524,-48.994061,19.121458,-93.369331,-1.493211,-1.706342,-3.132147,245.582458,-30.933733,-248.285522
989,298476191,-44.472572,15.599990,-96.510277,-0.124563,-4.566378,-3.285004,327.658752,-16.477465,-276.803009
990,298492858,-39.255150,12.161773,-100.315804,2.810860,-8.925190,-3.185959,367.911285,-8.316370,-302.423828
991,298509525,-34.520321,8.889041,-104.772659,6.440569,-14.824204,-2.262197,333.012848,-1.812738,-327.780640
992,298526192,-31.820751,5.680616,-109.606857,6.426269,-20.103003,-2.348471,198.893082,-6.246112,-345.696167
993,298542859,-32.481602,2.383094,-114.208420,1.362920,-23.416416,-2.057902,-19.951929,-23.443512,-337.960571
994,298559526,-35.960594,-0.707935,-118.127647,-4.743202,-21.523369,-0.717636,-204.937637,-23.614906,-298.259796
995,298576193,-40.699425,-3.219314,-120.728539,-6.306221,-15.932252,2.395509,-289.363892,-23.991838,-215.342270
996,298592860,-45.149826,-4.802307,-121.650490,-5.035113,-8.420732,6.562290,-270.657440,-34.488663,-104.584831
997,298609527,-47.986641,-5.042096,-120.983635,-3.369923,-4.995960,8.491432,-166.562729,-41.350342,17.507021
998,298626194,-49.023663,-3.947816,-119.281456,-2.902379,-7.114408,6.568592,-53.996979,-35.269829,117.192413
999,298642861,-48.919815,-1.882370,-117.047447,-3.935309,-9.255621,4.362008,13.257399,-22.143686,181.917877
1000,298659528,-48.137203,0.769722,-114.452805,-4.772653,-10.771853,2.566604,48.667160,-13.771474,222.892944
1001,298676195,-47.219238,3.742305,-111.614067,-4.243166,-12.625094,1.179326,48.570061,-8.255091,247.040588
1002,298692862,-46.777718,6.793747,-108.645721,-2.496125,-12.917000,-0.087425,10.352192,-7.320069,255.442215
1003,298709529,-47.178394,9.750831,-105.697014,-0.408638,-11.337306,-1.169100,-49.255383,-9.415680,249.772018
1004,298726196,-48.519360,12.522892,-102.962723,0.636642,-9.063120,-1.694963,-111.882950,-10.167508,231.960983
1005,298742863,-50.649036,15.003631,-100.502602,1.069912,-5.894614,-1.502124,-162.621140,-15.085875,206.926468
1006,298759530,-53.171432,17.212687,-98.238846,0.331316,-2.382920,-0.832830,-188.747772,-23.365286,185.484116
1007,298776197,-55.697227,19.165297,-96.251228,-0.649754,-0.519861,-0.455160,-188.494156,-26.447460,161.873795
1008,298792864,-58.030136,20.916471,-94.693726,-1.319493,-0.381374,-0.466300,-171.721237,-18.512297,136.646774
1009,298809531,-60.154652,22.492924,-93.695374,-1.167888,-0.464247,-0.615084,-149.347198,-1.604126,110.418663
1010,298826198,-62.142303,24.109854,-93.442558,-1.307958,0.285902,-0.466189,-124.980278,32.163139,92.373650
1011,298842865,-63.836555,25.714302,-93.915230,-1.564508,1.733789,-0.015482,-89.429932,64.177040,74.757843
1012,298859532,-65.449379,27.125940,-95.184860,-1.604690,3.358135,-0.565300,-62.593685,95.450989,47.988754
1013,298876199,-67.225182,28.253334,-97.103424,-2.461931,4.010096,-1.090572,-52.772758,118.027046,21.702831
1014,298892866,-69.071228,29.146439,-99.539131,-3.917883,4.334648,-0.773123,-40.293812,136.421600,2.674073
1015,298909533,-70.570709,29.966949,-102.527718,-4.240742,5.257885,-0.353412,-1.226807,160.867096,-6.956110
1016,298926200,-71.740662,30.849806,-105.998718,-3.896736,6.692419,-0.932024,35.507835,184.557343,-7.251578
1017,298942867,-72.676392,31.770247,-109.773933,-3.057783,8.238471,-0.959787,61.858421,198.589447,-5.928286
1018,298959534,-73.425484,32.649776,-113.616241,-1.799725,9.803376,-0.528930,78.226974,199.404327,-5.775869
1019,298976201,-73.945221,33.565029,-117.218765,-0.241869,10.890017,0.429049,87.170326,186.617661,2.439161
1020,298992868,-74.030380,34.647358,-120.330788,2.186462,11.718334,0.805427,99.875252,163.932343,20.356850
1021,299009535,-73.929016,35.906872,-122.783295,5.327733,12.184099,-0.038359,91.351822,133.724030,40.050159
1022,299026202,-73.958618,37.196308,-124.409233,8.606977,12.224543,-0.857889,56.614689,94.106461,53.221809
1023,299042869,-74.224983,38.363659,-125.005714,10.413411,11.300035,-0.742293,6.236937,43.795944,60.126564
1024,299059536,-74.712517,39.356289,-124.567322,10.888774,10.469697,-0.652888,-45.465061,-6.392581,63.354786
1025,299076203,-75.561432,40.136967,-123.312714,10.180584,9.776147,-0.701171,-98.773460,-46.529495,60.573002
1026,299092870,-76.758690,40.702320,-121.467102,8.342376,9.169150,-0.098698,-143.343399,-76.344627,53.523384
1027,299109537,-78.088936,41.206032,-119.392090,5.877547,8.521496,0.934414,-161.128677,-87.788239,50.361610
1028,299126204,-79.375931,41.869736,-117.491646,3.589140,7.978963,2.294120,-152.547836,-78.512062,56.098316
1029,299142871,-80.401970,42.630150,-115.875633,2.377358,7.880804,3.039015,-126.476456,-65.235298,57.867317
1030,299159538,-81.090385,43.189140,-114.397232,1.586238,7.996813,2.806613,-101.416931,-61.310852,43.885159
1031,299176205,-81.328896,43.379570,-112.966499,0.270722,7.884386,2.583420,-72.890533,-62.597195,21.164732
1032,299192872,-80.983986,43.112022,-111.615753,-1.146793,7.402429,2.208294,-34.555599,-63.393513,-6.472142
1033,299209539,-80.044708,42.318897,-110.386971,-2.088411,6.868949,1.520567,6.617087,-63.873779,-37.703850
1034,299226206,-78.521355,41.029335,-109.375763,-2.692106,6.012026,1.111246,51.332554,-61.533413,-67.295174
1035,299242873,-76.369675,39.265064,-108.670441,-3.147510,5.085164,0.374713,102.083099,-57.226215,-95.996628
1036,299259540,-73.454201,37.000359,-108.226753,-3.353630,4.373998,-0.777565,158.754379,-58.249897,-125.454597
1037,299276207,-69.786621,34.166340,-107.997986,-2.997633,3.759874,-2.297563,212.316132,-66.898445,-157.563416
1038,299292874,-65.391579,30.704288,-108.028740,-2.487787,2.901778,-3.965061,264.914825,-80.473488,-192.354721
1039,299309541,-60.289703,26.655930,-108.457504,-1.636917,1.187960,-5.781487,318.644745,-93.541672,-226.169037
1040,299326208,-54.626595,22.075092,-109.458305,0.614700,-1.487624,-7.777559,364.699524,-104.500526,-260.889709
1041,299342875,-48.968376,16.927364,-110.964462,3.917786,-5.946058,-8.846468,369.749664,-126.838127,-295.164429
1042,299359542,-44.481091,11.306363,-113.074295,6.024652,-12.819736,-7.237502,300.204132,-144.520554,-329.419769
1043,299376209,-41.672680,5.415797,-115.965248,2.628241,-21.094561,-2.291908,193.862167,-143.563614,-366.388397
1044,299392876,-39.629898,0.086936,-119.547722,-5.529438,-25.152378,2.850371,133.042114,-105.246010,-370.767395
1045,299409543,-37.250683,-3.890368,-123.165337,-10.307987,-22.079338,4.336123,135.709229,-54.572231,-317.819366
1046,299426210,-35.321892,-6.484669,-125.971336,-7.519278,-16.464949,3.577670,100.716583,-28.778189,-226.773956
1047,299442877,-34.979500,-7.823359,-127.397568,-3.385372,-8.720243,4.321239,10.132111,-19.320526,-115.138756
1048,299459544,-35.655293,-7.932868,-126.872406,-2.129855,-3.713523,2.723708,-35.987705,-25.923302,22.208971
1049,299476211,-36.537796,-7.256946,-125.034317,-0.582861,-5.514990,2.518769,-38.128780,-34.149223,112.768608
1050,299492878,-37.980434,-6.096182,-122.707413,-0.583287,-7.040369,3.271387,-70.075279,-31.033236,153.082657
1051,299509545,-39.492496,-4.567050,-120.251617,-2.084503,-7.606385,2.810100,-76.784836,-22.739714,172.408524
1052,299526212,-40.811222,-2.725373,-117.499977,-3.556988,-8.314346,1.194723,-68.377129,-24.280510,197.756134
1053,299542879,-42.132446,-0.686339,-114.317635,-3.557720,-9.405212,0.694311,-73.331833,-37.213539,224.607300
1054,299559546,-43.754356,1.482445,-110.870483,-2.999966,-10.729512,1.392971,-98.475662,-48.127987,240.655701
1055,299576213,-45.622726,3.730780,-107.445686,-2.157703,-11.006178,1.529028,-121.159828,-50.915627,241.432770
1056,299592880,-47.657772,5.999035,-104.184059,-2.088043,-9.735131,1.068724,-138.405640,-50.772911,233.480209
1057,299609547,-49.507057,8.275375,-101.128029,-2.565048,-8.146128,0.456980,-133.444550,-48.506783,223.459579
1058,299626214,-50.698181,10.593045,-98.319450,-2.572089,-6.154960,0.683700,-98.799377,-40.750324,214.004318
1059,299642881,-51.351391,12.862135,-95.833595,-1.967011,-4.596757,1.009222,-69.216362,-30.298597,198.404495
1060,299659548,-51.750332,14.973317,-93.855896,-0.819444,-3.319247,0.362835,-52.178993,-13.830655,171.549377
1061,299676215,-52.257519,17.157679,-92.426918,-0.919221,-2.875338,0.305712,-53.850632,13.366806,154.740417
1062,299692882,-52.480434,19.288544,-91.591148,-0.889441,-0.073873,-0.195418,-28.745310,37.952030,131.083893
1063,299709549,-52.724709,21.218941,-91.545952,-0.814892,1.549862,-0.926849,-15.279367,65.933006,94.309097
1064,299726216,-53.447151,22.930239,-92.192245,-0.492003,3.130923,-1.486215,-28.453661,88.002670,61.257568
1065,299742883,-54.871952,24.292521,-93.527000,-0.179010,4.880096,-1.281703,-53.092083,104.934669,24.032602
1066,299759550,-56.889072,25.306587,-95.516273,0.012909,6.172679,-0.588341,-70.643219,121.396683,-9.672389
1067,299776217,-59.048618,26.081678,-98.081131,-0.168231,7.479083,0.225226,-62.531105,139.777908,-33.405476
1068,299792884,-60.925220,26.698677,-101.030350,0.527191,8.139668,1.226418,-33.629593,153.302429,-46.524021
1069,299809551,-62.252087,27.287226,-104.163483,1.060255,8.445251,2.237119,6.014510,161.639099,-47.949974
1070,299826218,-62.797642,27.953482,-107.289139,1.769418,9.566553,1.898767,54.498009,163.356445,-40.528728
1071,299842885,-62.478542,28.656475,-110.108376,3.321720,10.924327,0.142295,99.627548,149.138077,-30.346186
1072,299859552,-61.750889,29.287388,-112.390686,5.780255,11.613853,-2.093978,110.261169,121.070351,-21.958868
1073,299876219,-60.974773,29.717089,-113.951706,7.599568,11.131287,-2.410308,92.961678,81.358368,-15.859917
1074,299892886,-60.331978,29.956209,-114.700554,7.547188,9.849123,-1.706157,61.191933,38.447777,-6.052765
1075,299909553,-59.873425,30.042536,-114.673073,6.653312,8.805552,-1.300208,26.952934,-1.222433,5.705545
1076,299926220,-59.544113,30.046703,-113.980194,4.974000,8.248738,-1.213531,-0.792820,-33.521523,18.833969
1077,299942887,-59.250813,30.057085,-112.832085,3.152043,8.439157,-1.386225,-16.639612,-53.590015,31.329712
1078,299959554,-58.859089,30.236183,-111.272858,1.666720,8.728589,-1.300244,-23.219927,-66.460274,51.230724
1079,299976221,-58.110451,30.587629,-109.322166,0.918125,8.705697,-1.115288,-14.069438,-77.649124,71.132645
1080,299992888,-57.103378,31.018379,-107.040550,0.395162,8.503822,-0.323593,-9.418830,-88.082047,85.187889
1081,300009555,-55.926792,31.436567,-104.491478,-0.552989,7.880391,0.644005,-8.439330,-97.896767,93.438271
1082,300026222,-54.453979,31.802347,-101.789810,-0.865397,6.866680,1.114309,3.638011,-103.487251,97.156166
1083,300042889,-52.722149,32.070904,-99.017769,-0.886855,6.336934,1.211995,16.178806,-106.729393,97.081261
1084,300059556,-50.709785,32.197601,-96.248375,-0.889112,6.394971,1.654391,32.603043,-108.459953,93.465675
1085,300076223,-48.122349,32.142159,-93.540298,-2.026263,6.504814,2.768559,68.966530,-109.363441,87.272133
1086,300092890,-44.821205,31.810596,-90.966064,-2.600299,6.752399,2.418001,116.498245,-111.466759,76.134644
1087,300109557,-41.012829,31.015827,-88.670258,-1.248367,7.456573,0.633858,156.926208,-117.782066,53.961311
1088,300126224,-37.174633,29.635296,-86.881454,0.877572,7.504373,-0.201728,176.313278,-125.550179,20.011189
1089,300142891,-33.812412,27.673050,-85.868591,2.735627,6.653020,-0.537189,172.798080,-129.693527,-24.594893
1090,300159558,-31.254700,25.164539,-85.764885,3.644473,4.990144,-1.161035,150.891876,-132.778275,-75.905556
1091,300176225,-29.411779,22.185064,-86.624428,2.982274,2.946382,-2.271779,131.476410,-133.332657,-130.712708
1092,300192892,-27.774162,18.805397,-88.437309,1.595395,0.497174,-3.200310,136.529343,-132.168564,-186.166260
1093,300209559,-25.769726,15.104741,-91.237335,1.257345,-2.337824,-4.032479,169.433121,-128.706940,-243.140747
1094,300226226,-23.002811,11.243462,-95.017273,1.482255,-6.745024,-4.518711,217.839279,-122.638832,-296.436096
1095,300242893,-19.527697,7.539608,-99.582314,0.991615,-12.513916,-3.137868,253.288803,-111.844566,-332.082794
1096,300259560,-15.764357,4.186432,-104.611191,-0.450645,-17.852150,-0.061423,256.687561,-103.435181,-346.649719
1097,300276227,-12.086999,1.440241,-109.793633,-3.228975,-22.728188,3.851180,235.980804,-87.835968,-340.692017
1098,300292894,-9.205349,-0.395433,-114.461754,-6.017724,-24.025696,5.962049,175.601212,-59.118423,-295.141754
1099,300309561,-8.442591,-1.388772,-117.945663,-5.471597,-19.044933,3.910851,42.740566,-29.406872,-215.176270
1100,300326228,-10.356401,-1.886992,-119.775002,-3.259984,-11.858580,1.280251,-117.724709,-14.101044,-112.620148
1101,300342895,-13.825304,-2.111026,-119.614975,-2.720165,-5.927273,0.678134,-207.578827,-17.650352,7.082566
1102,300359562,-17.216776,-1.970985,-117.745140,-3.384887,-4.788340,1.609714,-199.254913,-24.385168,110.816689
1103,300376229,-19.930304,-1.289223,-114.797897,-4.410460,-7.170764,2.310851,-157.516098,-19.999462,181.135590
1104,300392896,-21.919209,-0.083959,-111.297546,-4.405611,-9.923791,1.214067,-116.540199,-9.916462,222.537384
1105,300409563,-23.245821,1.502327,-107.498558,-3.721555,-11.526790,-0.195456,-82.138199,-2.093648,247.561386
1106,300426230,-24.187263,3.357228,-103.493187,-2.604502,-12.034224,-0.655795,-66.392975,2.892096,265.168243
1107,300442897,-24.928518,5.341785,-99.483032,-1.237997,-11.629643,-0.481665,-62.437061,6.186168,268.287628
1108,300459564,-25.533785,7.367916,-95.689781,-0.661414,-10.601692,-0.484001,-61.219635,11.174510,257.031982
1109,300476231,-26.008816,9.390923,-92.186913,-0.692128,-9.320724,-0.688400,-58.835243,16.553801,240.631912
1110,300492898,-26.335484,11.256892,-89.017830,-0.033449,-7.069335,-1.147226,-53.373947,15.643203,217.889664
