sep=,
DeviceTag:,DOT10
FirmwareVersion:,3.0.0
AppVersion:,2023.6.0
SyncStatus:,Synced
OutputRate:,60Hz
FilterProfile:,Dynamic
Measurement Mode:,Custom modes - custom mode1
StartTime: ,2026-04-28_16:01:20_415 GMT+2
© Movella Technologies B. V. 2005-2026

PacketCounter,SampleTimeFine,Euler_X,Euler_Y,Euler_Z,FreeAcc_X,FreeAcc_Y,FreeAcc_Z,Gyr_X,Gyr_Y,Gyr_Z
1,447711897,-22.877279,-20.421757,-14.632062,0.400715,0.111263,-0.187525,6.984548,-1.202083,18.857498
2,447728564,-22.883514,-20.271574,-14.350926,0.238468,-0.156614,-0.090239,6.985021,1.244465,18.300560
3,447745231,-22.880453,-20.114456,-14.120236,0.100608,-0.354017,0.022763,6.457884,2.725457,15.859932
4,447761898,-22.856972,-19.975189,-13.956750,0.007261,-0.520082,0.138455,6.265632,3.210433,11.962093
5,447778565,-22.838278,-19.856358,-13.867171,0.095980,-0.421352,0.126620,4.447896,3.700005,7.650278
6,447795232,-22.868683,-19.752562,-13.860081,0.031982,-0.254297,0.127511,-0.184975,4.675516,3.012355
7,447811899,-22.956711,-19.676720,-13.943155,-0.034900,-0.104088,0.123423,-5.467185,5.109921,-2.324673
8,447828566,-23.065323,-19.629393,-14.107711,-0.100804,0.042973,0.034295,-8.341022,5.340333,-7.222349
9,447845233,-23.163818,-19.610435,-14.325261,-0.098248,0.226389,-0.096477,-8.797610,4.965582,-10.636757
10,447861900,-23.226871,-19.608189,-14.563982,0.040649,0.497118,-0.171537,-7.094646,4.530294,-12.124382
11,447878567,-23.271248,-19.590773,-14.797364,0.254452,0.684884,-0.185839,-5.864518,5.259091,-11.482450
12,447895234,-23.303522,-19.518572,-14.999915,0.375645,0.767742,-0.030869,-4.509426,7.598210,-8.580900
13,447911901,-23.296824,-19.385614,-15.146822,0.241751,0.784104,0.282851,-1.039428,9.706070,-4.252158
14,447928568,-23.214121,-19.191339,-15.225180,0.126770,0.865947,0.483184,4.902344,11.552686,0.751176
15,447945235,-23.055317,-18.964754,-15.237526,-0.060682,0.979130,0.683784,10.778893,11.867625,4.923695
16,447961902,-22.861971,-18.728539,-15.198833,-0.122561,1.240990,0.945364,13.841729,11.285360,7.776352
17,447978569,-22.690001,-18.508389,-15.137376,-0.136608,1.378590,1.100357,12.986916,9.916039,8.562713
18,447995236,-22.582232,-18.321760,-15.066440,0.010045,1.373781,1.027870,9.301546,7.870065,8.264309
19,448011903,-22.556030,-18.191576,-14.987780,0.016253,1.186772,0.942864,4.540499,4.581979,7.364390
20,448028570,-22.566519,-18.138330,-14.902566,-0.033364,0.878452,0.832336,2.454312,0.175588,5.939868
21,448045237,-22.549387,-18.176016,-14.809981,0.060332,0.564376,0.523949,4.247592,-5.023920,4.234095
22,448061904,-22.489143,-18.305700,-14.709861,0.256193,0.460067,0.177073,6.982903,-10.283748,2.518095
23,448078571,-22.398056,-18.511251,-14.610545,0.453156,0.353762,-0.085635,8.833709,-14.467746,0.744594
24,448095238,-22.293230,-18.778807,-14.524981,0.538011,0.329729,-0.245323,9.417618,-17.607798,-1.376454
25,448111905,-22.198101,-19.090631,-14.462494,0.532813,0.273131,-0.288359,8.412217,-19.570158,-3.572119
26,448128572,-22.089954,-19.438171,-14.440504,0.490182,0.295582,-0.273415,8.410357,-20.693539,-6.477683
27,448145239,-21.977821,-19.805687,-14.468765,0.547848,0.379090,-0.302862,7.645765,-20.751451,-9.524256
28,448161906,-21.894423,-20.156937,-14.548324,0.674698,0.481090,-0.183478,4.859641,-18.783045,-11.804773
29,448178573,-21.835030,-20.469990,-14.671778,0.560762,0.541321,0.267916,2.478724,-15.754521,-13.212087
30,448195240,-21.774273,-20.738108,-14.811234,0.548603,0.680813,0.801332,2.186232,-12.936235,-13.017568
31,448211907,-21.722521,-20.943039,-14.947041,0.573893,0.965126,1.002861,1.691573,-9.508157,-11.398825
32,448228574,-21.702295,-21.097950,-15.089119,0.584478,1.060211,1.054571,-0.358745,-6.601536,-10.600092
33,448245241,-21.661560,-21.211840,-15.234517,0.455097,0.715043,1.222733,0.779414,-4.253196,-9.854413
34,448261908,-21.473604,-21.318306,-15.364009,-0.217569,0.271656,1.293952,9.942607,-4.188371,-8.849168
35,448278575,-21.060312,-21.460173,-15.486852,-0.479386,0.083527,1.083364,23.592678,-6.353169,-9.251828
36,448295242,-20.495646,-21.612391,-15.622111,-0.361898,0.153839,0.518650,32.383068,-6.770783,-10.066678
37,448311909,-19.917484,-21.754248,-15.791280,-0.268722,0.335887,0.024336,32.421455,-5.639838,-11.561492
38,448328576,-19.400099,-21.879230,-16.005083,-0.397667,0.322812,-0.320517,27.758698,-3.965923,-13.506431
39,448345243,-18.931923,-22.003649,-16.244003,-0.476899,0.232817,-0.598400,24.217344,-3.597135,-14.779710
40,448361910,-18.516190,-22.128027,-16.469986,-0.495789,0.087997,-0.968802,21.332092,-3.944813,-14.065374
41,448378577,-18.139914,-22.254652,-16.652967,-0.470707,0.195333,-1.192328,19.913254,-4.927406,-11.808208
42,448395244,-17.830458,-22.385086,-16.796862,-0.463051,0.244677,-1.458816,16.770802,-5.889367,-9.781811
43,448411911,-17.577501,-22.501530,-16.925278,-0.358784,0.081711,-1.714503,13.719271,-5.402659,-8.677925
44,448428578,-17.371847,-22.574152,-17.051182,-0.141147,0.034757,-1.797551,10.927299,-2.973815,-7.733670
45,448445245,-17.250299,-22.570736,-17.134890,0.444955,0.140168,-1.326893,6.847153,0.663440,-4.136259
46,448461912,-17.243793,-22.441454,-17.160395,0.654912,0.125571,-0.941540,1.288210,6.914975,1.179305
47,448478579,-17.298031,-22.210690,-17.162428,0.596478,-0.052079,-0.898714,-1.817952,12.342973,4.232668
48,448495246,-17.294222,-21.962624,-17.156685,0.724058,-0.190532,-0.725912,1.841394,13.204567,4.960178
49,448511913,-17.233236,-21.722597,-17.142485,1.104866,-0.149238,-0.507281,5.457974,12.606778,5.259117
50,448528580,-17.207962,-21.471750,-17.122665,1.327315,-0.174442,-0.301582,3.437527,13.137666,5.742609
51,448545247,-17.238209,-21.208536,-17.108480,1.090514,-0.639715,-0.030142,-0.022949,13.940240,5.664771
52,448561914,-17.222687,-20.964979,-17.105566,0.744594,-1.186878,0.271033,2.477345,13.000585,4.715218
53,448578581,-17.122517,-20.755505,-17.117393,0.397594,-1.539579,0.589029,7.240164,11.296693,3.308292
54,448595248,-16.923609,-20.618023,-17.146111,-0.336254,-1.773715,0.814037,12.810015,7.452283,1.104606
55,448611915,-16.611109,-20.615108,-17.218964,-1.054597,-1.764580,0.908541,18.697289,0.440994,-3.635919
56,448628582,-16.273859,-20.766518,-17.344275,-1.211692,-1.099206,0.857839,19.065775,-7.628795,-9.088528
57,448645249,-16.109013,-21.016359,-17.533031,-0.817226,-0.197145,0.709769,7.339797,-12.351846,-14.112222
58,448661916,-16.288250,-21.261980,-17.764893,-0.372943,0.230462,0.550898,-14.281505,-11.439655,-16.342922
59,448678583,-16.695873,-21.457760,-18.008051,-0.373324,-0.069226,0.221697,-28.282089,-8.314108,-16.134872
60,448695250,-17.149294,-21.613956,-18.224417,-0.369411,-0.279029,-0.045959,-30.481157,-6.358891,-14.051645
61,448711917,-17.513359,-21.751461,-18.364122,-0.149131,-0.384542,-0.077752,-23.450342,-6.464085,-9.664219
62,448728584,-17.732777,-21.876122,-18.392218,0.010500,-0.201908,0.233220,-12.301865,-7.562539,-3.529343
63,448745251,-17.832384,-21.996935,-18.314999,0.035394,0.041906,0.288678,-2.757195,-9.123015,2.105166
64,448761918,-17.854757,-22.125978,-18.177849,0.133447,0.055357,0.221719,3.237927,-10.614857,5.115135
65,448778585,-17.830933,-22.257980,-18.014263,0.006221,-0.181087,0.275677,6.626732,-11.232059,6.452477
66,448795252,-17.749907,-22.395344,-17.866137,-0.386918,-0.633191,0.453931,9.727576,-11.267599,5.537271
67,448811919,-17.576895,-22.547361,-17.749439,-0.839126,-1.163797,0.510278,14.546583,-11.562355,3.625879
68,448828586,-17.321043,-22.720322,-17.655191,-0.841986,-1.527089,0.508121,19.017996,-12.373159,2.094438
69,448845253,-17.067463,-22.873737,-17.571829,-0.714737,-1.667460,0.746094,18.645918,-11.064821,1.909949
70,448861920,-16.914946,-22.974628,-17.520351,-1.384464,-1.624110,1.183806,11.848423,-7.528807,1.177986
71,448878587,-16.891247,-23.079523,-17.548149,-2.178752,-1.572100,1.317879,2.264682,-6.483280,-3.074049
72,448895254,-17.047800,-23.224043,-17.706505,-2.260036,-1.183007,1.006919,-11.631378,-6.652944,-10.664115
73,448911921,-17.503582,-23.393679,-18.048632,-1.556261,-1.077581,0.307837,-33.969265,-5.030721,-20.801075
74,448928588,-18.254507,-23.520184,-18.588223,-0.750717,-1.338370,-0.556643,-56.441921,0.983638,-30.376177
75,448945255,-19.141972,-23.635914,-19.301552,0.475378,-1.272313,-1.174301,-68.864899,5.088466,-39.162121
76,448961922,-20.253202,-23.733957,-20.188360,2.911822,-0.809858,-1.151299,-86.543015,9.976077,-47.639923
77,448978589,-21.580359,-23.741573,-21.248497,3.973624,-1.389900,-0.773692,-103.729546,19.454891,-54.333202
78,448995256,-22.744316,-23.814157,-22.509729,4.404767,-1.029672,-0.356594,-98.842659,21.187746,-65.554359
79,449011923,-23.576250,-24.172684,-23.991293,5.302994,-0.695853,0.515722,-84.558838,11.266223,-82.904228
80,449028590,-23.945377,-24.809572,-25.690729,5.596803,-2.202969,1.710141,-62.915386,1.520925,-100.093025
81,449045257,-23.472675,-25.775764,-27.662710,4.804229,-4.138720,3.060087,-20.693056,-10.948299,-121.022758
82,449061924,-22.048782,-27.131546,-29.881508,4.787511,-4.512289,4.146166,27.613405,-29.773109,-141.141556
83,449078591,-19.994408,-28.722046,-32.372936,6.504947,-3.535167,4.405621,54.724354,-42.560974,-157.281525
84,449095258,-17.937170,-30.280294,-35.190014,8.980461,-3.143124,4.134018,41.666386,-41.459202,-169.267532
85,449111925,-16.178442,-31.491697,-38.319500,10.197394,-4.034318,3.997384,10.604207,-23.062593,-175.124374
86,449128592,-14.666223,-32.179153,-41.598736,10.208789,-5.229856,4.211537,-11.581880,3.845413,-171.851929
87,449145259,-13.262151,-32.295380,-44.685360,10.593203,-6.877828,3.871705,-13.074803,30.186760,-153.445328
88,449161926,-12.079800,-31.738554,-47.276764,11.393375,-8.891608,3.124984,-10.021824,60.669086,-121.040817
89,449178593,-11.255640,-30.365509,-49.019855,11.725224,-10.825183,1.167507,-3.028960,97.967300,-70.833458
90,449195260,-10.773826,-28.085314,-49.714073,11.060103,-9.849497,-1.323596,10.037783,140.422058,-9.286772
91,449211927,-10.520726,-24.998806,-49.222778,8.188309,-7.849682,-3.615560,29.825600,176.327606,60.394356
92,449228594,-9.980991,-21.429832,-47.550056,3.801175,-5.097471,-5.961995,73.408791,193.501221,129.145447
93,449245261,-8.714414,-17.635996,-44.538509,1.120877,-2.339003,-8.111331,137.850052,196.119690,205.288925
94,449261928,-6.545418,-13.642782,-40.143589,-0.115898,2.224801,-9.550875,202.611038,202.881256,283.808075
95,449278595,-3.563920,-9.300300,-34.713158,-3.019462,7.617266,-10.323861,244.981873,230.467117,341.389130
96,449295262,0.208032,-4.618126,-28.429331,-10.468076,13.676074,-8.997815,273.161285,268.848083,382.733429
97,449311929,4.645061,-0.167267,-21.404993,-20.114168,19.053665,-4.440549,284.859741,283.586182,409.859772
98,449328596,9.506534,3.292449,-14.244072,-32.687866,20.236790,6.265644,281.008392,257.886932,401.074097
99,449345263,13.478628,3.525135,-8.722244,-37.191422,11.775122,13.440281,219.944656,78.710915,321.581055
100,449361930,14.553031,0.850437,-6.441464,-22.196194,2.943622,4.687725,60.721169,-123.463898,171.774765
101,449378597,13.412429,-1.445092,-7.035895,-8.228957,1.151634,-1.281183,-67.107162,-143.192551,-1.100969
102,449395264,11.560579,-2.152577,-10.069269,-8.780982,6.427503,-0.417717,-115.290565,-81.702621,-168.211273
103,449411931,8.455431,-2.684270,-14.671487,-12.464623,9.881257,1.323256,-196.355270,-80.296661,-265.951996
104,449428598,5.075363,-3.681772,-19.852337,-15.798355,9.074224,-1.422948,-218.420654,-96.927231,-300.985107
105,449445265,3.578637,-5.765351,-24.992516,-18.490822,7.881821,-4.198597,-113.632156,-148.744125,-296.859436
106,449461932,3.994920,-9.179664,-29.738880,-13.686404,11.809523,-3.803545,-10.580818,-223.933441,-268.035492
107,449478599,4.329754,-13.098109,-34.187878,-6.484838,13.853729,-2.873691,-29.998827,-254.387344,-243.982010
108,449495266,3.813651,-16.920124,-38.571148,-2.526316,11.838063,-3.440515,-97.553391,-247.693924,-236.928314
109,449511933,2.797876,-20.250456,-42.612793,-1.369676,8.031278,-4.689313,-136.696396,-213.699539,-217.764145
110,449528600,1.901866,-23.276793,-46.043983,-1.734541,4.530223,-5.272685,-128.564713,-190.256622,-183.394958
111,449545267,1.311607,-26.309818,-48.514946,-0.866780,2.040673,-3.920327,-96.066681,-186.699600,-129.234589
112,449561934,0.914566,-29.326141,-49.969257,1.272826,-0.952089,-2.224388,-63.025639,-183.477661,-73.437668
113,449578601,0.450264,-32.029716,-50.327164,2.981288,-4.318807,-1.453164,-37.293480,-163.463669,-16.324440
114,449595268,-0.323558,-34.253475,-49.617069,4.473244,-5.808247,-1.421622,-18.367258,-134.440948,41.178120
115,449611935,-1.898162,-35.978325,-47.797115,6.077440,-5.401347,-0.507848,-26.819887,-106.339279,92.378487
116,449628602,-4.489869,-37.402897,-45.033970,6.356759,-6.406530,1.524693,-51.557087,-94.027481,132.813309
117,449645269,-7.809638,-37.983555,-41.536190,6.945619,-6.707445,4.727283,-66.210106,-53.885605,165.709641
118,449661936,-11.704573,-37.955261,-37.543552,10.030130,-6.948934,5.411928,-84.750839,-31.331625,186.600800
119,449678603,-16.022335,-37.056084,-33.398571,14.159069,-7.040658,3.829337,-106.073235,4.094202,204.661606
120,449695270,-20.167784,-35.860119,-29.367430,14.015586,-8.490838,2.506409,-103.431648,6.789183,207.392044
121,449711937,-22.600199,-34.707653,-25.982462,10.233879,-11.634276,3.581256,-27.108480,2.966969,179.786011
122,449728604,-22.576336,-33.994362,-23.563360,9.559354,-10.490013,5.519172,84.822662,-7.455129,127.290764
123,449745271,-21.234144,-33.983711,-22.250128,11.057691,-6.228949,5.783526,126.072197,-24.700024,61.074043
124,449761938,-19.759098,-34.782330,-22.110220,11.635628,-3.911908,4.297637,94.739647,-48.214935,-10.066015
125,449778605,-18.351503,-36.302654,-23.162466,10.841526,-4.007996,3.865394,49.243359,-70.334473,-78.110512
126,449795272,-16.597698,-38.156021,-25.313946,9.955231,-4.978261,4.135613,28.606722,-76.068871,-131.193680
127,449811939,-14.272618,-40.297241,-28.118048,9.612913,-5.899696,3.252844,35.795113,-90.396935,-158.078476
128,449828606,-11.457013,-42.420799,-31.301832,10.468149,-6.717342,3.233225,45.272690,-93.392220,-166.623215
129,449845273,-8.531903,-44.046902,-34.732346,10.935335,-7.076934,3.728585,36.532829,-70.968643,-163.750214
130,449861940,-6.097764,-44.870663,-38.022209,10.572966,-7.814736,4.641907,8.323376,-31.761200,-146.758698
131,449878607,-4.394980,-44.826206,-40.832760,8.887726,-7.945629,3.528972,-17.327898,12.981134,-120.671631
132,449895274,-3.488086,-43.984558,-42.800980,7.752337,-9.164112,1.778021,-26.740086,55.381050,-80.447609
133,449911941,-3.026210,-42.028332,-43.811817,5.869428,-8.724942,-0.915774,-13.467192,119.010628,-38.790062
134,449928608,-2.676297,-39.550724,-43.820465,4.652227,-7.079862,-2.658232,21.212229,147.787216,6.143465
135,449945275,-2.447064,-36.753731,-42.837471,4.181970,-4.227388,-4.132688,51.931553,164.806030,54.417046
136,449961942,-2.288416,-33.589634,-40.936268,3.348168,-1.315709,-5.345157,77.744904,185.002197,102.759499
137,449978609,-2.229331,-29.907770,-38.022476,2.096384,1.993201,-6.895606,97.044670,214.090759,157.513794
138,449995276,-2.148430,-25.664385,-34.227268,-0.643653,4.661283,-8.556387,112.524841,245.887436,211.302658
139,450011943,-1.397506,-21.045080,-29.673729,-4.710539,7.752861,-9.269198,154.851944,268.381348,259.580292
140,450028610,0.314139,-16.371447,-24.567228,-8.897965,12.064721,-8.213281,202.392502,276.745941,293.167664
141,450045277,2.346654,-11.569012,-19.333414,-15.861771,16.922256,-5.516375,199.148026,294.200104,298.311493
142,450061944,3.856907,-7.519423,-14.454750,-23.953327,18.651154,-1.058788,140.580414,257.302032,275.397919
143,450078611,4.719838,-5.270002,-10.749901,-26.800608,13.563470,4.776179,78.013367,150.217972,210.438293
144,450095278,4.922144,-4.986433,-8.881260,-21.515467,6.469721,6.462662,23.652998,25.456039,110.070023
145,450111945,4.477035,-5.170624,-9.232465,-13.408227,3.276864,3.958392,-27.080639,-13.644652,-19.785711
146,450128612,3.418136,-5.830307,-11.214141,-13.697445,4.804968,2.086024,-73.432823,-48.559944,-115.119736
147,450145279,2.135391,-7.023354,-14.300892,-14.541905,5.477184,1.308433,-96.184731,-81.347267,-180.134277
148,450161946,1.295594,-8.507948,-18.133537,-17.035841,6.494747,-0.547011,-79.949471,-96.794113,-224.859924
149,450178613,1.099570,-10.590072,-22.469141,-17.732779,9.089893,-2.713086,-53.418110,-131.195816,-253.649216
150,450195280,1.055441,-13.311849,-27.059551,-14.413301,10.633322,-3.885906,-58.186096,-169.277725,-266.132782
151,450211947,0.940744,-16.496157,-31.796068,-10.360835,10.281198,-4.100230,-78.475189,-196.749268,-271.068451
152,450228614,1.147173,-19.934847,-36.565563,-7.069454,7.446976,-4.804565,-75.581993,-212.182404,-267.839142
153,450245281,1.812968,-23.303366,-41.082790,-4.404120,5.366774,-4.866602,-58.435650,-209.519150,-246.473221
154,450261948,2.751694,-26.564976,-45.116001,-1.192096,3.132463,-3.847313,-44.214561,-205.278641,-211.277191
155,450278615,3.774495,-29.511318,-48.541828,1.206419,1.456543,-3.079250,-33.755547,-187.850677,-170.869614
156,450295282,4.587425,-32.123688,-51.358913,3.189275,-0.049043,-2.288407,-36.299957,-167.959839,-133.145645
157,450311949,4.490983,-34.326870,-53.406040,5.183482,-2.320448,-0.403360,-71.547905,-140.976120,-91.763374
158,450328616,2.598818,-35.834091,-54.363800,8.481587,-5.384871,1.773494,-145.379410,-94.276115,-41.693687
159,450345283,-1.488789,-36.405479,-54.084419,10.227467,-6.305528,1.845423,-232.907516,-35.212292,15.375666
160,450361950,-7.299476,-36.236340,-53.081203,11.335106,-5.795233,0.105748,-311.447662,5.365378,49.339035
161,450378617,-14.206107,-35.216049,-52.102840,11.291572,-6.518697,-0.631951,-378.576202,50.256435,58.452240
162,450395284,-21.451561,-33.826805,-51.097713,10.442423,-9.074661,0.238130,-398.999207,63.174675,73.046303
163,450411951,-27.979179,-32.821014,-49.966640,10.174614,-10.525777,1.040472,-352.840149,30.150019,76.960464
164,450428618,-33.124714,-31.804514,-48.699295,14.755931,-9.685566,3.191063,-266.556183,18.909433,86.556877
165,450445285,-36.886566,-30.752186,-47.236732,11.913757,-7.515242,5.132261,-178.629730,7.764270,97.868256
166,450461952,-38.199108,-29.854149,-45.922199,6.110737,-5.607298,7.815945,-37.451000,0.313119,87.046524
167,450478619,-37.045799,-29.429855,-44.749523,4.996842,-4.933549,8.891979,105.489098,-18.069956,64.207626
168,450495286,-34.339722,-29.478359,-44.059422,6.737339,-4.974235,7.835649,184.217453,-24.294800,27.822783
169,450511953,-31.162107,-29.860502,-44.099697,8.831216,-4.229671,5.863271,190.951477,-19.032898,-13.929606
170,450528620,-28.143150,-30.188145,-45.045219,10.028529,-4.763757,5.093378,154.235687,6.344545,-52.166752
171,450545287,-25.262020,-30.248600,-46.695339,9.584786,-6.063954,4.420139,124.513573,34.341686,-77.804283
172,450561954,-22.314837,-30.049131,-48.610321,8.980346,-7.135976,3.152254,120.590340,50.177174,-85.828918
173,450578621,-19.341650,-29.558777,-50.399410,9.004239,-7.702776,2.381209,126.499435,59.781055,-76.337502
174,450595288,-16.472191,-28.760496,-51.764847,8.761490,-8.187321,1.869020,133.711182,66.751244,-53.087429
175,450611955,-13.845314,-27.600159,-52.523121,8.526356,-7.158936,0.655927,137.589005,76.875061,-20.237247
176,450628622,-11.704237,-26.079538,-52.510677,7.934211,-6.097442,-0.386118,130.260284,88.035469,21.090847
177,450645289,-9.971389,-24.209078,-51.737106,6.603086,-5.862965,-1.513386,125.147179,101.536148,62.636406
178,450661956,-8.387184,-22.093039,-50.221458,5.277346,-4.835975,-3.255353,132.257278,111.211411,103.064499
179,450678623,-6.732012,-19.906748,-47.936363,4.177498,-2.909939,-4.526376,149.892365,112.409264,144.409409
180,450695290,-5.147062,-17.659592,-44.910793,3.491288,0.026773,-5.056128,154.994843,115.519753,185.162277
181,450711957,-3.871980,-15.195279,-41.241684,2.242699,2.643842,-5.515264,140.210724,129.975952,222.393890
182,450728624,-2.888035,-12.532855,-37.063591,-1.458030,5.922281,-4.661612,120.560051,144.267563,252.638504
183,450745291,-2.236656,-9.969580,-32.439754,-6.171879,10.016003,-2.176382,94.679222,140.602142,278.955414
184,450761958,-2.074011,-7.709031,-27.694132,-9.592333,12.457731,-0.994260,55.000381,124.065277,286.501160
185,450778625,-2.581350,-5.612153,-22.909868,-13.303661,12.419917,-3.826411,4.369222,113.221062,290.232330
186,450795292,-3.771045,-3.517606,-18.310337,-17.722279,10.709085,-5.520143,-47.880093,109.313217,281.877960
187,450811959,-5.231021,-1.900504,-14.175797,-21.169121,6.070099,-4.507685,-74.340927,76.358093,254.882385
188,450828626,-5.963252,-1.059286,-11.319455,-20.688402,0.177529,-1.896137,-38.009426,32.605747,175.657867
189,450845293,-5.751710,-0.736653,-10.459039,-17.288132,-0.778481,1.459833,14.993573,13.061046,53.549774
190,450861960,-5.413888,-0.806169,-11.459772,-12.665243,3.421395,2.547985,20.957987,0.745577,-59.934673
191,450878627,-6.017980,-1.020464,-13.888262,-10.625025,6.727399,2.243708,-37.063744,0.761943,-146.023254
192,450895294,-7.289465,-1.509703,-17.361216,-11.431063,6.500115,1.590649,-79.368225,-5.975622,-210.104919
193,450911961,-8.091802,-2.650896,-21.410536,-12.701053,6.563316,0.688125,-55.440655,-36.311001,-249.558807
194,450928628,-8.155531,-4.436961,-25.695452,-13.193045,9.391782,-0.331737,-18.214310,-70.762390,-268.954895
195,450945295,-8.057850,-6.723149,-30.053905,-11.814313,12.395531,-2.203416,-18.069855,-100.026764,-276.800720
196,450961962,-8.251641,-9.486957,-34.414291,-9.163808,12.625508,-2.539901,-47.005272,-128.336197,-279.712372
197,450978629,-8.518689,-12.510281,-38.641869,-6.405533,8.754072,-2.818192,-62.905079,-144.080597,-272.591248
198,450995296,-8.366984,-15.462976,-42.611435,-4.750912,6.490571,-3.448839,-46.966366,-142.253479,-254.423706
199,451011963,-7.714911,-18.320028,-46.249855,-3.279580,6.041935,-3.713443,-22.819122,-141.477173,-230.612106
200,451028630,-7.001098,-21.272276,-49.379890,-0.258435,4.322271,-2.472349,-19.285419,-154.017029,-197.738098
201,451045297,-6.499506,-24.036514,-52.013515,1.333381,1.149252,-2.260318,-29.267214,-148.548096,-164.110703
202,451061964,-6.004134,-26.528740,-54.257782,2.017840,-1.048051,-2.084543,-26.281517,-136.373627,-137.117905
203,451078631,-5.609113,-28.684544,-56.083988,3.336236,-1.977025,-1.217853,-25.563475,-119.851288,-109.484016
204,451095298,-5.922587,-30.416264,-57.268112,5.716984,-2.323416,-0.394279,-52.329483,-98.159386,-71.728088
205,451111965,-7.718285,-31.655848,-57.668396,7.622829,-3.200091,0.113685,-118.604393,-72.393707,-29.062193
206,451128632,-11.116038,-32.245857,-57.358589,7.801010,-5.419057,0.979125,-192.513641,-38.485744,9.974892
207,451145299,-15.616247,-32.410542,-56.322105,8.500935,-8.082459,3.097221,-235.242401,-22.730572,49.055111
208,451161966,-20.857376,-31.600277,-55.125973,13.307636,-6.866631,3.145789,-274.909729,26.179382,73.242340
209,451178633,-27.980358,-30.732067,-52.669106,17.047098,-4.874620,0.375933,-349.532227,-5.662117,136.651688
210,451195300,-36.068893,-29.212399,-49.765060,15.290123,-5.340832,-1.488024,-396.661713,-3.686991,176.625107
211,451211967,-42.900772,-27.536226,-47.245132,2.509885,-8.019685,1.848106,-336.491272,-7.910923,166.905380
212,451228634,-46.194218,-26.590809,-44.298389,-5.092738,-10.522973,8.017084,-115.636948,-70.947906,152.223190
213,451245301,-45.176342,-26.252966,-41.313423,-1.484262,-12.013965,10.090172,142.244034,-101.513779,126.782372
214,451261968,-41.195206,-26.465717,-38.777737,5.956442,-9.125021,7.485661,307.881104,-103.531708,90.921135
215,451278635,-36.484600,-27.092981,-37.225113,12.725159,-5.222625,3.613772,326.088013,-82.391586,41.424618
216,451295302,-32.395290,-27.797731,-37.031437,14.158742,-3.719149,1.694880,252.205780,-41.600029,-15.173090
217,451311969,-29.038836,-28.502998,-38.116814,13.167848,-4.210052,1.104890,172.147034,-7.927037,-70.739830
218,451328636,-26.311035,-29.086418,-40.123089,13.015421,-4.747989,1.257606,107.161827,17.127077,-109.431664
219,451345303,-23.959955,-29.414593,-42.585953,12.562194,-5.896424,2.297949,70.327698,36.075207,-124.826874
220,451361970,-21.703876,-29.058815,-45.272121,12.967812,-6.476907,2.850351,58.105907,73.384132,-121.077766
221,451378637,-19.805359,-28.118124,-47.639400,12.851410,-6.902413,2.106858,47.402866,96.115326,-96.367149
222,451395304,-18.372915,-26.792824,-49.272152,12.276633,-8.014950,0.963998,42.239853,102.725769,-55.885345
223,451411971,-17.229265,-25.164118,-50.014835,9.816679,-8.525080,-0.113005,50.560734,104.451706,-8.001993
224,451428638,-16.100468,-23.381107,-49.748817,6.701480,-8.009398,-1.091708,75.749191,97.485687,44.884041
225,451445305,-14.779641,-21.542940,-48.413116,4.318708,-6.474242,-2.116240,111.327705,85.766022,101.018181
226,451461972,-13.200682,-19.651558,-46.065998,3.532773,-3.805541,-2.606061,145.731705,77.416061,155.618423
227,451478639,-11.575754,-17.569809,-42.720608,3.036280,-1.018618,-3.566500,162.996399,80.338448,212.864182
228,451495306,-10.092549,-15.137552,-38.409264,1.626570,2.158493,-4.783202,163.261475,95.797592,271.491608
229,451511973,-8.691730,-12.303875,-33.320702,-1.074169,6.011913,-5.143368,157.890518,118.412628,320.642426
230,451528640,-7.297772,-9.398736,-27.634489,-6.149502,10.065096,-4.259940,149.280045,125.047295,356.330566
231,451545307,-5.677921,-6.606082,-21.479849,-11.595788,12.649899,-3.782270,149.988251,124.175095,382.547089
232,451561974,-3.738162,-4.109397,-15.048839,-16.976765,14.757243,-3.872591,153.774734,116.762100,395.448792
233,451578641,-1.914814,-2.393240,-8.637176,-23.966999,13.344455,-2.123873,132.592941,82.934135,388.946869
234,451595308,-0.692481,-1.815663,-3.029429,-26.773281,6.153709,0.944972,87.128090,26.081476,337.172211
235,451611975,0.330845,-1.917099,0.203100,-22.026760,-5.360694,3.068658,69.189812,-7.602706,194.056549
236,451628642,2.871097,-2.261854,-0.097891,-15.253293,-10.432611,-1.479029,153.249359,-22.106150,-17.235607
237,451645309,5.634653,-2.814803,-2.798064,-7.358212,4.595088,-0.274895,160.108582,-46.019203,-158.729568
238,451661976,5.333665,-2.843233,-5.990275,-7.560518,11.107201,4.983849,-26.004633,-20.918253,-190.028824
239,451678643,3.405070,-2.999635,-9.156414,-10.376603,7.613464,2.394609,-123.870155,-24.753422,-188.233002
240,451695310,2.523799,-4.032133,-12.758290,-12.969898,3.838504,-0.414440,-64.616089,-73.953156,-211.987274
241,451711977,2.616386,-5.558026,-16.828522,-12.794929,6.944892,-1.110456,-13.366662,-103.293976,-238.784943
242,451728644,2.347167,-7.291276,-21.274281,-13.017365,10.254956,-1.239683,-44.495281,-116.291283,-260.098206
243,451745311,1.629108,-9.541410,-25.957308,-13.007606,11.097185,-1.905479,-82.684067,-145.474686,-272.896667
244,451761978,1.213718,-12.344591,-30.704456,-10.945264,10.294156,-2.635751,-77.478111,-175.968445,-275.193848
245,451778645,1.447690,-15.589641,-35.218979,-7.850015,9.056488,-2.870566,-49.855240,-201.648285,-258.075195
246,451795312,2.032495,-19.107437,-39.384895,-3.990675,7.490028,-2.448227,-37.972897,-219.120239,-231.872986
247,451811979,2.697283,-22.553459,-43.222374,-0.693276,5.548524,-2.390898,-40.517040,-216.387848,-206.288971
248,451828646,3.292266,-25.681692,-46.578529,1.289423,4.404894,-2.736600,-45.096977,-197.987823,-173.530731
249,451845313,3.514307,-28.515818,-49.286461,2.573416,3.485351,-2.971509,-59.188015,-179.304642,-134.082169
250,451861980,2.937233,-31.138214,-51.146622,3.518056,0.951072,-1.410190,-88.620674,-163.532471,-87.605331
251,451878647,1.664019,-33.413689,-52.149483,3.993436,-3.307689,-0.208298,-107.002953,-139.458740,-45.138424
252,451895314,-0.354170,-35.061111,-52.278118,5.504885,-4.360162,-0.546630,-122.946342,-99.898224,-3.571111
253,451911981,-3.755115,-36.034828,-51.578709,7.269265,-4.264212,-0.531020,-176.545044,-60.691463,34.539726
254,451928648,-8.914364,-36.079681,-50.289753,10.944275,-5.218717,1.106499,-262.517365,-10.550531,62.069912
255,451945315,-14.925140,-34.989113,-49.186073,11.075427,-8.768287,1.215940,-320.635315,51.944450,66.475258
256,451961982,-19.935909,-33.057796,-48.364674,11.426184,-13.989534,0.031419,-271.534424,97.392670,73.913887
257,451978649,-24.386520,-30.479549,-47.116158,23.387253,-10.957512,0.284907,-226.040054,118.319695,117.572189
258,451995316,-30.621645,-27.069908,-45.197819,22.178177,-3.490662,-1.454345,-317.060699,133.967712,184.251556
259,452011983,-36.166328,-23.969942,-43.825832,1.329099,-6.564704,2.896791,-295.630981,113.515442,164.681732
260,452028650,-37.342552,-22.150518,-42.594738,-5.451655,-8.782187,9.585791,-40.148056,45.886520,120.010780
261,452045317,-35.099861,-21.596241,-41.435410,2.950312,-6.367133,9.933409,161.961060,-12.216862,71.968765
262,452061984,-31.796316,-21.871813,-40.845634,8.792228,-3.399576,7.508230,212.804962,-32.813606,18.553200
263,452078651,-28.649717,-22.629667,-41.192112,9.745940,-3.313435,4.522867,182.409546,-30.498018,-39.277828
264,452095318,-25.757507,-23.601610,-42.554386,8.913854,-4.459305,2.437311,142.918137,-18.382042,-93.279991
265,452111985,-23.064859,-24.561811,-44.724598,9.159600,-5.015882,2.819838,109.890564,-4.202866,-131.816757
266,452128652,-20.483032,-25.262045,-47.388893,9.581334,-5.508829,3.780982,89.028992,13.899121,-149.974228
267,452145319,-17.942188,-25.630608,-50.183048,9.327128,-6.191602,3.832511,81.869377,28.072176,-149.977859
268,452161986,-15.615277,-25.724398,-52.607121,10.304368,-6.197906,3.414954,78.049118,31.592026,-126.873360
269,452178653,-13.798764,-25.470026,-54.296467,10.753207,-6.970401,2.265790,66.662086,37.112782,-84.288055
270,452195320,-12.519839,-24.891228,-55.058464,9.316669,-7.612503,0.743703,58.747395,42.385548,-32.127441
271,452211987,-11.491479,-24.044847,-54.824490,7.041780,-7.302953,-1.003651,68.979294,46.171528,23.317282
272,452228654,-10.443534,-22.996300,-53.647846,5.480127,-6.484797,-2.273399,92.511757,48.610474,75.775368
273,452245321,-9.324454,-21.751629,-51.524700,5.148087,-4.579652,-3.432899,117.092911,52.512871,129.124817
274,452261988,-8.262355,-20.286594,-48.469692,4.654930,-2.447269,-4.446958,130.925751,59.865562,182.785202
275,452278655,-7.200546,-18.451107,-44.573990,3.528909,-0.556287,-5.634009,142.677811,78.597183,233.580612
276,452295322,-5.844214,-16.142794,-39.924423,1.635137,1.763454,-6.794822,165.757309,106.450821,280.631897
277,452311989,-3.981773,-13.492678,-34.548687,-0.827260,5.777977,-7.385000,195.628784,130.785339,324.574738
278,452328656,-1.702494,-10.704823,-28.479744,-4.805960,10.481092,-6.412008,214.424149,148.440369,364.208191
279,452345323,0.888635,-7.980643,-22.089888,-9.990474,12.915182,-5.768623,219.016937,159.770554,379.772247
280,452361990,3.631150,-5.573343,-15.674412,-17.146704,13.560001,-3.899740,211.274033,158.414429,376.555786
281,452378657,5.565132,-3.550885,-10.464733,-23.813141,11.745521,2.985141,142.300674,144.988571,301.123047
282,452395324,6.532137,-2.330291,-7.295413,-28.052658,2.137275,5.598267,69.246101,91.927902,181.366501
283,452411991,7.440331,-1.783795,-6.494476,-18.917450,-1.971462,1.748650,57.704811,37.472164,43.908993
284,452428658,7.799272,-1.678387,-7.209037,-13.919823,1.536736,1.894386,21.734735,-0.342419,-43.083549
285,452445325,7.618232,-2.153022,-9.076407,-12.353362,2.935562,2.492940,-13.111728,-44.175873,-106.915169
286,452461992,7.165635,-2.913154,-11.785888,-10.749698,4.779577,2.091151,-32.838276,-67.060326,-154.959686
287,452478659,6.527206,-3.841756,-15.196701,-12.194508,6.062468,1.192773,-48.853470,-80.608673,-195.963577
288,452495326,5.981904,-5.034684,-19.170450,-14.183363,7.273253,-0.261875,-49.656570,-97.979195,-228.269379
289,452511993,5.533336,-6.720377,-23.570320,-15.249368,10.077717,-1.598634,-52.433819,-127.896561,-250.912552
290,452528660,4.939253,-9.231985,-28.384333,-14.515461,12.240947,-1.945635,-74.199356,-177.067596,-270.896545
291,452545327,4.392082,-12.464740,-33.508766,-11.043392,11.915811,-2.224440,-89.171089,-218.750702,-285.011719
292,452561994,4.182220,-15.940517,-38.722298,-7.420692,10.414214,-2.794876,-87.831528,-231.489487,-286.636322
293,452578661,4.306295,-19.415073,-43.763920,-3.782954,9.075254,-3.850697,-82.920357,-230.099655,-271.813812
294,452595328,4.546722,-22.788441,-48.510017,-0.543072,7.375809,-3.748169,-86.607056,-223.190231,-249.071533
295,452611995,4.614890,-26.042046,-52.814716,2.174550,4.571473,-2.968466,-101.167877,-214.287262,-218.652145
296,452628662,4.336566,-28.949186,-56.626476,3.688360,0.753412,-2.075167,-120.771217,-190.666931,-188.446762
297,452645329,3.651583,-31.207691,-60.025890,4.854296,-1.328072,-2.239261,-141.794113,-148.434738,-166.430832
298,452661996,2.257575,-32.623573,-62.861900,6.007370,-2.644570,-2.333934,-171.761230,-93.240280,-139.166534
299,452678663,-0.338209,-33.385639,-65.019821,7.511182,-3.490955,-1.994281,-224.736343,-48.518463,-107.603859
300,452695330,-4.314883,-33.145947,-66.868843,10.236318,-6.752292,0.077332,-297.920380,17.168837,-91.919090
301,452711997,-9.192128,-31.761118,-68.589470,11.693608,-9.858476,1.288012,-346.487488,91.828720,-76.562866
302,452728664,-15.002905,-29.332214,-69.926476,13.666228,-10.394186,1.798675,-387.841736,156.104324,-36.823879
303,452745331,-21.775795,-26.017147,-70.648697,18.205921,-7.845688,1.807333,-424.875916,200.044312,26.558626
304,452761998,-30.203257,-23.106693,-69.753395,21.351721,-4.613346,-1.163435,-481.698486,134.737061,120.762337
305,452778665,-38.106876,-20.544127,-67.923874,4.695352,-3.821512,-0.261283,-431.802124,69.132401,170.988861
306,452795332,-41.780899,-18.791685,-65.269363,-7.556640,-4.371717,8.193644,-165.304596,-16.612009,182.729126
307,452811999,-40.744785,-17.953194,-62.195450,-4.318580,-7.280224,11.711851,121.766289,-78.544350,164.979767
308,452828666,-36.681400,-17.720057,-59.388023,2.173331,-7.458552,8.579092,296.838654,-90.305984,134.135757
309,452845333,-31.844986,-18.146687,-57.172112,7.966309,-6.125208,4.130399,332.572845,-93.303452,90.400558
310,452862000,-27.878204,-18.633764,-56.215012,10.942971,-5.774516,1.493011,257.600922,-53.382450,32.953064
311,452878667,-25.140440,-18.956001,-56.490154,9.970980,-5.447594,0.889512,160.428024,-11.215115,-22.374094
312,452895334,-23.157656,-19.294804,-57.495480,8.486148,-5.797131,1.602074,100.678291,3.885687,-60.075542
313,452912001,-21.230398,-19.530462,-58.896122,7.660699,-6.464948,2.426887,89.174889,15.973050,-78.481056
314,452928668,-18.937164,-19.806866,-60.275608,7.445526,-6.931847,2.785201,111.202087,10.319067,-78.646706
315,452945335,-16.442181,-20.148504,-61.340797,8.876535,-6.944092,2.539413,129.327789,-2.140904,-63.206619
316,452962002,-14.117878,-20.411238,-61.921963,9.717754,-7.250475,2.162295,128.836838,-7.444481,-35.456337
317,452978669,-12.214568,-20.488438,-61.845219,9.337898,-7.460362,1.542414,117.270523,-6.344433,3.398861
318,452995336,-10.629007,-20.287264,-61.000687,7.829566,-7.158126,-0.006466,114.245834,1.581498,49.201229
319,453012003,-9.100081,-19.791601,-59.319305,6.556206,-6.483142,-1.713727,127.758553,12.224436,98.722572
320,453028670,-7.543525,-18.967747,-56.780891,6.431109,-5.179439,-2.995633,145.380493,27.278091,149.573959
321,453045337,-5.893340,-17.730785,-53.438984,5.107667,-3.811569,-4.851667,163.571640,50.598137,197.954163
322,453062004,-4.030416,-16.069038,-49.244507,3.924722,-1.874098,-6.898269,186.354202,77.642769,248.788879
323,453078671,-1.596571,-13.961232,-44.218319,2.654532,0.188011,-8.880581,225.535629,111.132195,297.420502
324,453095338,2.154064,-11.437502,-38.414078,-0.247032,2.381173,-11.184141,302.863586,152.166992,339.346954
325,453112005,7.972270,-8.588395,-31.633772,-4.114603,7.705892,-12.227638,420.852234,204.734924,384.476898
326,453128672,16.204266,-5.893443,-24.081169,-12.305425,15.423737,-9.214242,551.735962,251.458725,406.434174
327,453145339,26.430401,-4.475132,-16.376448,-27.243521,19.892735,1.376904,655.880249,246.038849,398.813782
328,453162006,36.578396,-6.006647,-10.856706,-35.270718,13.356014,14.474710,640.113281,93.308838,329.856659
329,453178673,42.265114,-10.010897,-8.351747,-22.149973,9.713732,16.724501,363.440735,-91.986633,267.885773
330,453195340,42.129833,-12.877906,-7.936895,-9.983619,8.920783,5.067657,-1.688493,-111.972954,133.859314
331,453212007,38.885536,-13.289298,-8.965230,-6.952053,4.088773,-1.869559,-207.132950,-58.743439,-29.416260
332,453228674,34.589680,-12.039173,-11.398809,-9.993963,2.188951,0.602952,-288.231354,-26.060356,-158.820328
333,453245341,29.502785,-9.870924,-14.902433,-13.487260,5.381787,0.771598,-343.548035,-0.226289,-243.799835
334,453262008,24.209970,-7.810424,-19.144646,-14.026539,7.130430,-3.720700,-355.022278,-4.342920,-280.083710
335,453278675,19.871496,-6.917192,-23.974787,-13.989932,7.639324,-5.107560,-295.803894,-59.200829,-286.344727
336,453295342,16.650944,-7.030880,-29.216551,-11.969431,8.752433,-3.647083,-229.789856,-105.296867,-294.118073
337,453312009,13.993784,-7.797528,-34.711781,-9.579696,9.562423,-1.209287,-200.351532,-131.739304,-302.977478
338,453328676,11.446408,-9.010283,-40.169842,-6.048962,9.146351,-0.166234,-199.077576,-143.281418,-299.798248
339,453345343,8.744137,-10.306703,-45.371090,-2.736332,8.364796,-0.304578,-212.865997,-131.483505,-289.066254
340,453362010,5.912173,-11.738986,-50.162243,-0.693368,6.433403,-0.924946,-223.260223,-122.208206,-268.717957
341,453378677,3.170296,-13.402534,-54.460857,0.154337,4.386065,-0.536469,-219.040497,-120.415222,-242.857132
342,453395344,0.530606,-15.445750,-58.169186,1.661912,2.593344,0.154999,-212.213440,-130.473526,-211.232285
343,453412011,-2.201308,-17.834909,-61.247940,3.253292,0.090555,-0.395634,-215.229218,-141.746506,-178.879822
344,453428678,-5.016211,-20.128580,-63.504704,3.188149,-2.009077,-1.463527,-211.369461,-130.287933,-136.265472
345,453445345,-7.548473,-22.490757,-65.017639,1.543557,-3.370512,-1.904159,-183.369370,-132.623749,-99.378899
346,453462012,-9.904156,-25.068815,-65.626099,3.247259,-5.824396,-0.890755,-154.510757,-148.818970,-56.293793
347,453478679,-12.608533,-27.283630,-65.456566,7.698855,-8.873471,-0.099082,-156.229996,-133.100998,-16.787971
348,453495346,-15.524462,-28.255775,-65.639580,14.758394,-14.699177,0.032134,-178.545670,-55.187778,-23.404484
349,453512013,-20.302284,-28.022402,-64.857719,32.683979,-18.330578,-3.704250,-263.024628,-0.345282,43.883945
350,453528680,-27.357101,-26.683893,-63.492287,27.522030,-17.074823,-6.755278,-384.109772,43.162914,99.282623
351,453545347,-32.012249,-25.108946,-61.994671,-5.963892,-9.613832,1.678537,-238.550400,41.165413,117.284607
352,453562014,-30.478016,-24.575596,-60.079124,-3.396843,-5.865543,6.672907,141.819229,-27.637274,106.013466
353,453578681,-27.746531,-24.885761,-57.965069,10.813046,-1.512548,5.849066,218.428955,-73.207413,91.852776
354,453595348,-26.561260,-25.137480,-56.948139,11.272983,-1.658784,6.917608,98.398483,-39.557903,42.551285
355,453612015,-25.696930,-25.060129,-57.631012,2.231874,-4.176975,7.326502,35.959461,19.626652,-31.018639
356,453628682,-24.027443,-25.169239,-58.965015,-0.272555,-4.019998,6.675514,67.672821,23.654509,-68.257820
357,453645349,-21.389790,-25.481243,-60.654388,2.637157,-3.180654,6.074450,116.370308,17.228954,-91.497375
358,453662016,-18.279591,-25.807919,-62.412754,6.102065,-2.527582,5.071069,142.416367,12.966585,-95.873688
359,453678683,-15.279287,-26.022272,-63.973862,8.966063,-3.188942,4.350385,140.546921,11.142628,-84.126198
360,453695350,-12.672757,-25.978868,-65.091644,9.949695,-4.328816,3.802547,128.452362,16.225365,-57.616219
361,453712017,-10.392652,-25.662167,-65.555161,9.053066,-5.479164,2.826504,126.151573,22.770281,-20.475969
362,453728684,-8.164045,-25.103506,-65.269730,8.112209,-5.745021,1.521915,142.509460,29.742729,20.930674
363,453745351,-6.057580,-24.352190,-64.137024,8.310638,-5.169650,0.461129,156.263000,36.254932,67.096832
364,453762018,-4.244855,-23.400021,-62.181927,8.815677,-4.226946,-0.782624,157.681549,46.437660,112.224686
365,453778685,-2.872929,-22.235306,-59.443691,8.303461,-3.198129,-1.943982,147.459579,59.517517,155.743683
366,453795352,-1.862570,-20.921743,-55.950127,6.480429,-2.239819,-3.079428,139.141235,69.860115,198.271393
367,453812019,-0.978525,-19.506124,-51.782005,4.323879,-0.870840,-4.253838,140.881653,78.254333,236.973038
368,453828686,-0.051873,-18.050934,-47.031269,2.486723,0.921581,-5.373710,148.783234,84.034691,270.901825
369,453845353,0.875352,-16.748665,-41.617847,1.771544,2.599118,-6.025401,154.185516,79.508636,309.626343
370,453862020,1.939962,-15.366975,-35.532303,0.923277,3.646186,-7.414597,166.287811,90.624504,348.999695
371,453878687,3.333889,-13.437438,-29.039551,-1.845982,7.116192,-7.763585,181.921310,132.093094,371.870636
372,453895354,5.072280,-11.539520,-22.066904,-7.353403,10.505194,-7.597790,196.125565,142.570358,399.302124
373,453912021,7.363840,-9.374067,-14.742234,-13.846714,13.336883,-6.367754,218.550507,174.998306,415.882690
374,453928688,9.614514,-6.963974,-7.625870,-24.977777,15.068365,-2.071259,197.012802,204.410980,396.991089
375,453945355,10.619020,-5.439894,-2.075865,-30.441214,8.088065,3.252693,97.677086,147.230865,310.090851
376,453962022,9.892387,-4.772633,0.796938,-24.295010,-2.796936,8.709257,-26.769121,69.044685,162.042984
377,453978689,8.264461,-4.326421,0.632682,-11.102524,-4.817339,0.143966,-96.973434,23.951929,-13.692758
378,453995356,5.670141,-3.474195,-2.089236,-3.905527,4.607982,-0.417571,-165.245148,30.036369,-167.716965
379,454012023,1.030755,-2.227710,-6.421643,-8.334031,5.088228,3.929303,-289.658203,58.517551,-263.395660
380,454028690,-3.851749,-1.758847,-11.215875,-14.868757,2.880363,2.410209,-301.292786,34.233597,-286.561951
381,454045357,-5.871046,-2.915310,-16.053638,-20.078669,1.341181,-2.369678,-131.426361,-45.495205,-294.653534
382,454062024,-5.641290,-5.424150,-21.179403,-19.129065,8.101989,-2.986783,-7.087687,-119.896790,-320.072540
383,454078691,-5.874089,-8.516174,-26.607710,-14.970296,15.277427,-0.532639,-51.972336,-153.020462,-340.077240
384,454095358,-7.197822,-11.885262,-32.378395,-10.913128,16.069180,-0.457705,-139.149063,-162.902206,-361.395874
385,454112025,-8.543809,-15.294570,-38.260262,-8.232088,11.186408,-3.088583,-162.087677,-156.521652,-367.653137
386,454128692,-8.917605,-18.912500,-43.709438,-6.227958,7.625556,-4.692705,-117.053368,-168.006088,-341.649567
387,454145359,-8.489236,-22.776011,-48.400715,-2.048320,6.398663,-4.234411,-72.965576,-190.245163,-294.930481
388,454162026,-8.138641,-26.687017,-52.365067,2.606496,3.513792,-3.050428,-76.976570,-201.898849,-247.538605
389,454178693,-8.390084,-30.236753,-55.513878,5.143792,-1.252881,-2.088551,-103.594040,-187.883606,-194.814850
390,454195360,-9.233720,-33.217785,-57.924603,5.356575,-2.737624,-2.057297,-125.137772,-158.909119,-148.806213
391,454212027,-11.181827,-35.700096,-59.359951,7.836787,-3.180338,-1.572538,-164.062042,-135.015976,-96.110916
392,454228694,-15.617038,-37.615063,-59.462029,14.723392,-5.967069,0.793708,-268.214050,-111.662361,-31.234579
393,454245361,-23.473423,-37.795376,-58.601147,24.832706,-9.560838,2.681410,-438.263855,-24.867519,35.096779
394,454262028,-35.104328,-36.461445,-57.025387,34.497486,-10.317767,-5.674270,-639.214417,32.007549,105.240654
395,454278695,-48.180805,-34.021915,-54.733379,24.370342,-16.684814,-12.443511,-703.552368,33.852146,181.718567
396,454295362,-57.437397,-31.461849,-52.350853,-11.831091,-9.379642,-1.034454,-476.448853,-3.881647,195.426956
397,454312029,-59.995773,-30.388199,-46.897312,-15.531430,-7.447481,10.922480,16.229605,-207.350922,200.985458
398,454328696,-58.458893,-29.657967,-40.276482,3.847361,-6.218652,9.177910,292.391754,-274.077179,213.837112
399,454345363,-57.254055,-29.414364,-33.597095,16.209774,-0.027441,6.542395,271.289124,-288.397980,198.127335
400,454362030,-57.334663,-29.265299,-29.617685,14.602133,0.876435,8.624371,113.647575,-171.202225,120.229950
401,454378697,-57.769646,-29.389837,-28.264065,8.454941,-2.562437,9.663248,15.168648,-64.655243,31.945108
402,454395364,-57.669865,-29.979689,-28.552959,5.341017,-6.322664,9.468473,-1.113428,-7.058434,-37.694462
403,454412031,-56.160137,-30.939774,-30.069006,3.069951,-6.820668,8.564590,45.952705,33.367065,-90.788597
404,454428698,-53.204880,-32.098946,-32.036358,3.144169,-5.403818,7.100878,117.072861,41.028938,-114.644661
405,454445365,-49.327435,-33.321602,-34.051647,5.952690,-4.030805,4.923898,168.766052,32.600357,-120.610893
406,454462032,-45.202709,-34.315994,-36.234974,9.663272,-4.355639,3.980873,176.032028,38.595070,-117.404083
407,454478699,-41.348122,-34.725056,-38.500710,10.274100,-5.627738,2.661940,155.695526,58.061535,-98.090851
408,454495366,-37.869232,-34.396290,-40.550808,9.621984,-6.855392,1.521688,140.418671,78.931496,-65.179474
409,454512033,-34.668728,-33.278572,-42.077106,8.462454,-7.528651,0.293576,142.496292,98.232925,-21.366982
410,454528700,-31.703508,-31.575583,-42.704350,7.787765,-6.929898,-0.653260,159.190948,102.081841,29.639214
411,454545367,-28.789566,-29.530296,-42.453987,7.594518,-5.423865,-2.185956,183.928711,98.687622,73.292892
412,454562034,-26.212469,-27.183685,-41.122799,7.670401,-3.333871,-3.514841,194.010406,91.626358,127.666168
413,454578701,-24.085224,-24.204796,-38.677212,7.209359,-1.375514,-4.802479,192.691101,104.778366,195.957245
414,454595368,-22.036196,-20.573370,-35.547253,6.192489,1.209398,-6.587248,195.893539,131.616684,245.425522
415,454612035,-20.008671,-16.652145,-31.382452,4.225493,4.916341,-8.366909,202.807663,133.768936,305.771851
416,454628702,-17.883821,-12.758330,-26.233223,1.449660,9.108042,-8.548412,207.284927,123.001038,358.813110
417,454645369,-15.906137,-8.949888,-20.061520,-4.175746,13.090742,-6.227522,189.734818,111.934868,414.691650
418,454662036,-14.824255,-4.828629,-13.298009,-13.468614,17.335552,-3.930884,114.983284,130.578644,454.276611
419,454678703,-16.043489,-0.442864,-7.052010,-22.912521,17.423056,-3.561864,-54.326832,152.920273,431.160767
420,454695370,-19.132313,3.490720,-2.263906,-29.966478,7.698586,-3.404716,-191.315353,137.210205,345.372925
421,454712037,-22.047890,6.105675,0.442873,-29.770399,-5.264451,4.153530,-186.987823,89.042160,206.934708
422,454728704,-23.479309,6.719633,1.375782,-17.493944,-13.209047,8.768042,-90.656670,11.518473,65.766373
423,454745371,-22.938974,5.913109,0.206566,-7.911709,-4.060486,-0.613837,41.628613,-17.939379,-82.939804
424,454762038,-22.725775,4.488017,-2.451872,-8.035594,2.321224,-0.444534,28.746258,-18.102745,-179.365372
425,454778705,-22.954237,2.656460,-5.928486,-10.686694,-0.296247,1.172202,0.794155,-21.389572,-234.306778
426,454795372,-22.994673,0.710154,-9.806910,-12.393508,2.226886,-0.270174,5.915109,-17.648033,-259.519714
427,454812039,-23.283817,-1.312255,-14.038548,-12.564839,6.570155,-2.601405,-17.163376,-12.733228,-280.941162
428,454828706,-24.331017,-3.473155,-18.840933,-12.268266,9.105437,-3.806603,-73.305939,-3.323107,-315.524750
429,454845373,-25.778503,-5.909917,-24.157677,-12.414905,8.616769,-3.211944,-111.352280,1.297112,-349.736389
430,454862040,-26.958149,-8.546844,-29.728453,-10.660305,7.877374,-2.654676,-111.250626,4.633148,-367.164703
431,454878707,-27.589912,-11.128544,-35.267017,-7.964940,7.016380,-3.827167,-93.125328,11.465274,-361.812836
432,454895374,-27.685162,-13.410054,-40.703167,-5.635887,5.380949,-4.952642,-73.490997,25.656048,-345.660034
433,454912041,-27.425278,-15.266826,-45.944347,-3.574832,4.683902,-4.107944,-60.754669,41.230251,-321.463196
434,454928708,-26.960958,-16.783651,-50.896061,-1.307122,4.856362,-1.369944,-52.624557,48.583076,-295.404114
435,454945375,-26.300825,-18.101471,-55.537937,0.112297,4.408167,0.248097,-42.340084,47.447052,-272.782593
436,454962042,-25.685242,-19.296860,-59.771210,2.010719,3.148035,0.071342,-42.951309,39.994831,-247.513962
437,454978709,-25.802738,-20.181953,-63.527206,4.794376,1.074253,-0.116632,-81.596642,43.313225,-213.965347
438,454995376,-27.539658,-20.470051,-66.756859,8.443971,-1.265444,0.246819,-169.938156,65.135979,-169.989944
439,455012043,-30.703115,-20.317345,-69.494392,7.698094,-4.179208,2.595107,-245.452438,81.962677,-129.899139
440,455028710,-33.969421,-19.754673,-71.788765,8.175342,-6.628607,5.529564,-241.563690,96.750793,-91.069633
441,455045377,-36.850845,-17.974859,-73.844391,22.224289,-10.803653,4.560695,-211.186371,153.722549,-33.085743
442,455062044,-42.348454,-15.673496,-73.249435,41.210838,-11.131512,-7.056754,-317.946991,83.703445,114.579674
443,455078711,-49.966484,-12.682324,-71.857933,17.304619,-6.156065,-5.749001,-435.021179,65.041626,185.856140
444,455095378,-53.083702,-9.810051,-70.027512,-11.132368,1.938459,13.080980,-164.096664,21.962635,202.183273
445,455112045,-49.899796,-8.653836,-66.630302,-8.311259,-2.958842,17.878258,225.141663,-115.191063,179.795807
446,455128712,-44.269398,-8.485556,-62.917313,6.409016,-4.291700,10.285067,372.381195,-155.444733,157.693420
447,455145379,-40.696003,-8.851466,-60.591953,11.253034,-3.197874,6.382053,236.876648,-110.266319,87.143250
448,455162046,-39.036861,-9.217588,-60.525375,4.125018,-5.655698,5.795595,101.640747,-20.288647,-10.809062
449,455178713,-37.439129,-9.790656,-61.542027,1.193834,-7.461872,4.038960,87.255035,9.339252,-68.286385
450,455195380,-34.843407,-10.559454,-62.943439,1.869425,-7.765537,2.063427,142.347397,10.679808,-93.791374
451,455212047,-31.256622,-11.460812,-64.378906,5.389252,-7.344600,0.148149,200.212006,-0.094169,-100.111443
452,455228714,-27.394680,-12.290717,-65.694893,9.003534,-7.638712,-0.676440,216.919266,-6.430377,-91.506180
453,455245381,-23.914680,-12.810075,-66.804611,10.366666,-7.950224,-0.318137,195.782379,-0.799725,-71.819580
454,455262048,-21.000261,-12.993198,-67.574646,9.647402,-8.338162,-0.028314,165.996582,6.213939,-45.552101
455,455278715,-18.511520,-12.952908,-67.840294,8.719837,-7.922826,-0.493630,147.187241,6.704059,-13.529800
456,455295382,-16.408276,-12.739756,-67.423241,8.662847,-8.012702,-0.824037,133.193542,4.072577,27.383320
457,455312049,-14.588247,-12.419527,-66.226639,8.332407,-7.659659,-1.998120,126.266144,-1.002390,72.934395
458,455328716,-13.003365,-11.909651,-64.156609,8.918696,-6.510512,-3.220601,122.685707,-0.023822,125.483360
459,455345383,-11.717361,-11.201115,-61.109364,9.366685,-4.954696,-3.868034,115.197891,2.409167,184.352921
460,455362050,-10.697488,-10.318892,-56.973507,9.564291,-2.785534,-4.721292,108.928947,3.767955,249.699997
461,455378717,-9.752143,-9.288509,-51.716705,8.143655,0.218473,-5.233390,111.826286,4.888653,317.110443
462,455395384,-8.522351,-8.168767,-45.335449,3.959440,4.770820,-5.192612,133.263153,5.435379,384.578766
463,455412051,-6.323266,-7.260496,-37.815399,-3.625771,10.496431,-3.695319,193.786942,-4.534747,450.707428
464,455428718,-2.733316,-6.979033,-29.043703,-11.697301,17.198055,-2.930507,281.689178,-25.182842,522.315063
465,455445385,1.068028,-6.816848,-20.094654,-19.377010,21.526787,-4.033895,293.594269,1.186311,533.514526
466,455462052,2.455262,-5.621481,-12.222721,-28.730640,21.757395,-3.601753,135.752243,85.192589,467.366150
467,455478719,-0.463729,-3.324326,-6.870214,-31.461523,12.002716,1.576014,-148.468460,142.410538,318.000549
468,455495386,-7.156734,-0.999499,-5.339944,-25.540468,-6.091650,3.064605,-396.568695,132.228943,101.107971
469,455512053,-13.942176,0.653725,-7.259010,-9.151976,-7.767601,-3.215095,-405.922791,117.703545,-94.875343
470,455528720,-18.689861,1.201453,-11.645110,-7.262856,0.881827,-0.153847,-278.959869,104.513748,-243.157608
471,455545387,-20.922482,0.889972,-17.114559,-13.171759,-1.735028,1.477150,-126.363586,92.642975,-314.836029
472,455562054,-20.433691,-0.050506,-22.592005,-17.164211,1.420064,-0.499335,33.225548,62.314468,-327.174927
473,455578721,-19.169664,-1.401968,-27.841785,-12.799456,10.199489,-4.888979,73.321388,29.463322,-323.599792
474,455595388,-18.946293,-2.975512,-33.223679,-8.468849,14.804905,-4.693723,2.591928,15.180303,-335.610809
475,455612055,-20.095749,-4.566128,-39.059528,-5.789038,14.844447,-2.505100,-90.398621,25.854242,-361.002472
476,455628722,-22.079191,-6.021085,-45.080677,-4.092888,12.278909,-1.955963,-150.688293,47.020138,-366.873932
477,455645389,-24.012920,-7.392318,-50.906712,-2.762248,9.748641,-2.341478,-155.206787,59.229919,-351.507172
478,455662056,-25.395521,-8.756658,-56.286793,-1.891052,7.704217,-2.494018,-126.689697,58.221004,-324.398468
479,455678723,-26.066700,-10.208675,-61.067226,-1.106615,5.878909,-1.772159,-85.951065,43.347279,-292.508759
480,455695390,-26.048771,-11.731771,-65.144653,0.135830,4.484515,-0.162240,-43.925003,22.403902,-255.738297
481,455712057,-25.481365,-13.336573,-68.455162,1.706185,3.382911,1.035838,-7.515955,-3.442083,-216.311920
482,455728724,-24.612692,-15.004231,-71.074966,2.502690,1.367566,1.097930,15.185230,-27.140409,-180.274994
483,455745391,-24.037142,-16.413275,-73.106567,4.096951,-0.831272,2.031858,3.081250,-29.718740,-141.590424
484,455762058,-24.385450,-17.438713,-74.129669,6.690440,-2.675568,2.693005,-37.215389,-33.046486,-78.632378
485,455778725,-25.971323,-17.995226,-74.389000,9.229375,-3.991482,3.138060,-98.339828,-24.921383,-27.455334
486,455795392,-29.048321,-18.021368,-73.992683,11.340900,-5.980638,3.548331,-175.732620,-12.834001,19.504128
487,455812059,-33.467018,-17.145613,-73.101128,14.625404,-8.610465,3.781418,-247.430222,17.479092,71.047821
488,455828726,-38.772865,-15.828417,-71.489761,15.494268,-8.695369,1.288405,-289.376801,8.226079,121.694084
489,455845393,-43.668282,-14.005700,-69.093819,9.217705,-8.626519,-0.428268,-255.169174,-10.242582,176.785767
490,455862060,-46.260422,-12.314466,-66.074852,-2.400773,-7.650235,2.377577,-112.770172,-53.799538,196.712372
491,455878727,-45.164116,-11.056931,-62.535465,-4.401034,-9.900542,4.732677,110.243752,-97.126404,199.433487
492,455895394,-41.886600,-10.212293,-59.113499,2.957292,-9.819927,4.220332,235.966324,-103.166306,181.463516
493,455912061,-38.949535,-9.748775,-56.556629,7.581516,-7.525307,2.977704,204.272308,-77.701462,133.312531
494,455928728,-37.326122,-9.443934,-55.645569,5.827854,-7.520451,2.692747,108.004379,-19.788799,53.935322
495,455945395,-36.088226,-9.457453,-56.139103,1.008436,-8.604451,2.590327,70.898933,15.931689,-23.649244
496,455962062,-33.720341,-10.001003,-57.326557,-1.209726,-8.705995,2.063774,131.519699,12.569814,-75.996727
497,455978729,-29.662439,-11.186729,-58.685703,1.343430,-6.606771,0.664034,229.959625,-19.281515,-105.339470
498,455995396,-24.595488,-13.057927,-59.887188,6.824047,-4.963771,-0.658807,290.338440,-68.641968,-113.698273
499,456012063,-19.700928,-15.135525,-61.046928,12.191681,-4.989833,-0.099161,278.175323,-90.870255,-109.276543
500,456028730,-15.696829,-16.760199,-62.290459,13.883931,-6.842795,1.436204,221.199844,-71.889732,-97.736687
501,456045397,-12.578062,-17.815098,-63.455212,12.365275,-7.357481,2.777107,167.811035,-45.890682,-79.914085
502,456062064,-10.173310,-18.492876,-64.151138,11.344697,-7.576350,2.966767,132.725769,-32.840748,-46.659164
503,456078731,-8.389227,-18.870693,-64.160477,10.903550,-7.191060,2.690768,108.311646,-23.073200,-3.916082
504,456095398,-7.212013,-18.961576,-63.253925,10.929046,-7.387665,1.794055,89.703918,-13.158815,50.502575
505,456112065,-6.484200,-18.727314,-61.297718,10.193366,-6.665418,0.678562,83.013008,-0.050922,112.230232
506,456128732,-5.944269,-18.138163,-58.193829,9.953654,-5.102178,-0.676591,92.711159,15.260817,179.731476
507,456145399,-5.520163,-17.095413,-53.948360,9.963841,-2.624503,-2.499076,103.968689,37.239124,248.076736
508,456162066,-5.154802,-15.412872,-48.569202,8.313144,0.618616,-5.080925,113.691933,70.891212,318.157532
509,456178733,-4.550840,-13.076029,-42.138187,4.239041,5.171045,-7.699116,132.605301,107.199646,384.789215
510,456195400,-3.294610,-10.160890,-34.764236,-2.488466,11.104774,-8.161760,165.840332,143.888687,444.620453
511,456212067,-0.972049,-7.149586,-26.417034,-12.147118,19.159744,-6.277835,215.939377,161.078140,501.855591
512,456228734,2.426434,-4.477288,-17.607325,-25.575932,22.852285,-2.484802,258.503510,165.941071,524.174866
513,456245401,5.427761,-2.609233,-10.082354,-36.634174,20.480753,5.901231,209.191055,141.715347,442.214111
514,456262068,5.982542,-2.293613,-5.265723,-33.956703,9.402979,8.829384,47.098511,46.648067,285.646942
515,456278735,3.418910,-2.835846,-4.019624,-20.973442,-3.133868,-0.223554,-148.998215,-27.240761,77.343086
516,456295402,-0.135687,-2.845061,-5.967839,-6.711527,-4.987250,-7.074142,-217.570572,-4.864910,-116.472145
517,456312069,-3.529869,-2.463637,-10.170092,-8.174708,0.119157,-0.336206,-213.744919,29.949099,-250.814606
518,456328736,-6.870104,-2.394365,-15.440999,-13.998407,3.685311,0.677745,-212.177811,31.794462,-314.116150
519,456345403,-8.849064,-3.152012,-20.847128,-16.303026,6.124340,-3.208202,-132.837051,-1.695293,-326.958954
520,456362070,-8.947503,-5.058349,-26.102913,-14.541833,9.104715,-5.811938,-26.965250,-65.290482,-328.231445
521,456378737,-8.579862,-7.547850,-31.198624,-9.266075,12.424933,-5.535374,-10.009500,-102.263535,-322.902435
522,456395404,-8.891586,-10.197796,-36.170910,-5.703491,12.890992,-4.944718,-63.186195,-113.336617,-315.302277
523,456412071,-9.793899,-12.875186,-41.011158,-4.283595,11.010075,-4.791538,-110.659058,-113.290031,-306.669403
524,456428738,-10.846822,-15.618978,-45.626476,-3.485222,9.055881,-4.728148,-129.760864,-114.865395,-293.381775
525,456445405,-11.688389,-18.509277,-49.857922,-3.053566,6.104710,-4.585120,-123.437721,-123.650085,-271.750214
526,456462072,-12.055365,-21.490408,-53.526260,-2.880540,3.529225,-3.737326,-95.753540,-133.508240,-239.033615
527,456478739,-12.199981,-24.525782,-56.564877,-0.943573,2.838570,-2.296571,-78.393967,-143.832153,-202.168762
528,456495406,-12.754865,-27.511456,-58.966042,2.018596,0.542373,-0.611299,-94.935005,-147.982117,-164.960159
529,456512073,-13.971092,-30.374151,-60.766102,2.744149,-3.239228,0.642236,-123.675491,-146.318481,-131.504105
530,456528740,-15.311312,-32.915051,-61.957191,2.043004,-6.333227,2.064158,-116.346344,-133.169815,-97.251045
531,456545407,-16.547379,-35.335609,-62.372803,4.241691,-4.975225,3.244772,-86.593376,-135.023315,-59.558369
532,456562074,-18.748554,-37.702435,-61.696888,11.332339,-5.325191,3.942291,-106.370445,-146.224869,-11.837972
533,456578741,-22.856333,-39.329891,-59.958126,19.270544,-7.707283,3.849813,-179.934799,-121.276390,41.799404
534,456595408,-29.327360,-39.806664,-56.911800,24.369530,-11.829931,-0.024632,-270.261871,-88.645081,114.162537
535,456612075,-36.919701,-38.896870,-52.477558,18.722845,-15.609039,-4.645708,-285.200989,-67.686394,202.358139
536,456628742,-43.125435,-36.989742,-47.498680,5.330845,-11.725772,-4.519423,-186.986221,-64.855446,254.190628
537,456645409,-46.659809,-34.895077,-42.066322,0.098146,-7.613212,-1.156822,-19.120253,-98.171570,275.795105
538,456662076,-47.338634,-32.424614,-37.242489,2.773132,-3.684448,1.602221,121.221680,-76.051819,272.884735
539,456678743,-47.470695,-30.367929,-32.456398,0.860153,2.767931,3.789435,143.185593,-97.866112,256.943176
540,456695410,-48.412251,-28.909388,-27.765358,2.547602,3.641455,5.241479,84.225861,-123.926750,229.057693
541,456712077,-49.773705,-27.390785,-25.147924,1.798200,1.490084,5.579533,-6.084763,-45.887337,159.773346
542,456728744,-50.909863,-26.421743,-24.107269,-2.382321,-2.092592,6.806223,-38.420017,-6.651050,80.548302
543,456745411,-51.163082,-26.096640,-23.928381,-2.769527,-3.125107,6.867252,-8.948248,3.890595,21.469198
544,456762078,-50.727730,-26.208942,-24.265463,-1.371442,-2.150702,5.705705,18.707928,8.962758,-16.424147
545,456778745,-49.801029,-26.594057,-25.085289,-0.134682,-0.093356,4.400881,35.233280,18.221546,-45.688328
546,456795412,-48.758598,-27.156439,-26.209465,1.139736,1.584285,2.719211,33.557476,22.699213,-64.579185
547,456812079,-47.951427,-27.714582,-27.506172,1.763348,1.757122,1.197640,14.081128,28.458250,-70.663849