sep=,
DeviceTag:,DOT10
FirmwareVersion:,3.0.0
AppVersion:,2023.6.0
SyncStatus:,Synced
OutputRate:,60Hz
FilterProfile:,Dynamic
Measurement Mode:,Custom modes - custom mode1
StartTime: ,2026-06-02_17:34:04_277 GMT+2
© Movella Technologies B. V. 2005-2026

PacketCounter,SampleTimeFine,Euler_X,Euler_Y,Euler_Z,FreeAcc_X,FreeAcc_Y,FreeAcc_Z,Gyr_X,Gyr_Y,Gyr_Z
1,842984480,75.190155,-24.059645,109.275040,-0.043791,0.248470,0.290710,0.095311,15.343907,2.667289
2,843001147,75.042732,-24.054005,109.563614,-0.127844,0.266214,0.273020,-0.320172,14.341220,3.546125
3,843017814,74.952461,-24.073179,109.845634,-0.099152,0.397254,0.150080,2.950348,13.604815,4.923667
4,843034481,74.934837,-24.111504,110.107796,0.009746,0.472105,0.054461,6.831547,12.246433,5.761806
5,843051148,74.980965,-24.160944,110.347549,0.022123,0.585524,-0.142183,10.117877,10.886233,6.083143
6,843067815,75.068481,-24.232992,110.558022,-0.067422,0.575979,-0.185162,11.896744,8.988997,6.962197
7,843084482,75.153778,-24.302416,110.748352,-0.158988,0.575819,-0.070063,11.281346,7.966049,6.508365
8,843101149,75.189064,-24.363724,110.948624,-0.181430,0.596756,0.036294,8.538466,8.619633,6.163758
9,843117816,75.185722,-24.417158,111.157387,-0.086247,0.574633,-0.019989,6.444869,9.187696,5.819944
10,843134483,75.196823,-24.467564,111.366043,0.000410,0.622942,-0.172495,7.317865,9.222439,5.639413
11,843151150,75.267319,-24.514130,111.547562,0.311134,0.603165,-0.175636,10.218480,7.847795,5.029613
12,843167817,75.404976,-24.591446,111.688499,0.414370,0.320198,0.299380,13.247252,5.241842,6.234668
13,843184484,75.559486,-24.750874,111.828163,0.009766,-0.022128,1.155839,14.246177,3.949732,10.970028
14,843201151,75.590752,-24.996080,111.973251,-0.262739,-0.247989,1.681274,7.014654,2.957483,16.016390
15,843217818,75.446930,-25.282301,112.120811,-0.078253,0.119646,1.194377,-3.390818,2.439658,18.434410
16,843234485,75.147446,-25.580673,112.244698,0.297994,0.433691,0.613734,-13.301482,0.924089,18.822868
17,843251152,74.697929,-25.881632,112.314568,0.312802,0.656313,0.253616,-23.673761,-2.078810,18.219580
18,843267819,74.112259,-26.169991,112.312729,-0.058635,0.845498,-0.074926,-33.708565,-5.772017,16.439432
19,843284486,73.232285,-26.403313,112.245132,-0.462696,0.883699,-0.391386,-53.113495,-8.449937,12.210338
20,843301153,72.181145,-26.551357,112.148880,-1.029791,0.909835,-0.788445,-64.162704,-8.597697,6.739602
21,843317820,71.222458,-26.610043,112.024620,-1.085023,0.876845,-1.031685,-59.380764,-8.455142,1.040305
22,843334487,70.445541,-26.628775,111.951996,-0.779655,0.919712,-1.331149,-47.091774,-5.058701,-0.429580
23,843351154,69.917259,-26.632553,111.910362,-0.566035,0.845996,-1.256456,-31.343714,-3.185155,-0.758945
24,843367821,69.807236,-26.624130,111.887955,-0.474488,0.610876,-0.853983,-5.728895,-1.956349,-1.106674
25,843384488,69.992378,-26.623499,111.920822,-0.398956,0.104778,-0.004929,13.461963,0.663862,0.348391
26,843401155,70.248466,-26.659304,112.038345,-0.670438,-0.157722,0.424612,19.995745,4.193414,3.942755
27,843417822,70.623360,-26.733198,112.210442,-0.376879,-0.118860,0.259945,28.600010,6.205689,7.046313
28,843434489,71.075851,-26.813574,112.349754,0.650014,0.013986,0.196981,32.379452,4.466084,6.784952
29,843451156,71.422890,-26.905979,112.410286,1.242531,-0.086828,0.566301,23.931293,0.279467,6.072943
30,843467823,71.502861,-27.026833,112.402313,1.022917,-0.209955,1.057666,6.053506,-3.718300,6.524664
31,843484490,71.379257,-27.198994,112.349617,0.416594,-0.316494,1.269576,-7.382699,-6.967402,8.685061
32,843501157,71.003197,-27.407722,112.302223,0.059893,-0.190382,1.040810,-22.391779,-7.442582,10.829953
33,843517824,70.496689,-27.637072,112.255905,0.023632,0.250604,0.468190,-30.200539,-7.876473,11.970212
34,843534491,70.092232,-27.898809,112.195366,0.227999,0.432948,0.224668,-24.484056,-9.332847,13.492125
35,843551158,69.736359,-28.200418,112.117027,0.412905,0.421117,0.289376,-22.086302,-11.121616,15.363020
36,843567825,69.275558,-28.518696,112.011124,0.210251,0.425111,0.107356,-29.190166,-12.934827,15.720548
37,843584492,68.579025,-28.843691,111.871429,-0.170789,0.286147,0.070245,-44.333824,-14.881798,15.342886
38,843601159,67.770210,-29.164707,111.721741,-0.297795,0.042371,0.178848,-51.409164,-15.463566,14.749995
39,843617826,66.955406,-29.487099,111.599144,-0.251310,-0.134778,0.255000,-51.013435,-14.368391,15.175743
40,843634493,66.222420,-29.832750,111.485092,-0.087579,-0.015464,-0.022840,-45.893330,-14.702899,16.461565
41,843651160,65.690758,-30.201822,111.375366,0.131149,0.005685,-0.045779,-33.720058,-15.229286,17.693966
42,843667827,65.245918,-30.600693,111.278969,0.155786,0.016160,0.072557,-28.145473,-15.478933,19.493624
43,843684494,64.904083,-31.018379,111.213989,-0.056151,0.068156,0.110808,-21.035254,-14.600088,21.110649
44,843701161,64.545227,-31.456984,111.192917,-0.058861,-0.054264,0.250555,-20.716263,-13.215758,23.131659
45,843717828,64.168495,-31.919191,111.201302,-0.072770,0.049742,0.104358,-20.869829,-12.616703,24.983225
46,843734495,63.875671,-32.416481,111.230774,0.073610,-0.088204,0.301207,-15.157450,-12.724414,27.274645
47,843751162,63.691200,-32.935959,111.289970,0.126051,-0.070056,0.217179,-7.680457,-12.087880,29.080862
48,843767829,63.646496,-33.473305,111.373360,0.191589,-0.020185,0.150255,1.525376,-11.551498,30.551910
49,843784496,63.693699,-34.004795,111.502037,-0.086474,-0.044765,-0.054730,8.588709,-9.393109,31.228489
50,843801163,63.876987,-34.516685,111.642105,-0.212102,0.072295,-0.409136,17.197605,-8.337933,30.424498
51,843817830,64.176994,-35.011105,111.798424,-0.256351,-0.169110,-0.206507,24.814392,-7.070899,29.843447
52,843834497,64.611267,-35.469761,111.966934,-0.374154,-0.122872,-0.255350,33.358376,-5.451226,28.186459
53,843851164,65.325371,-35.912136,112.129639,-0.165801,-0.015784,-0.368061,50.004963,-5.053470,27.206924
54,843867831,66.404907,-36.353340,112.218964,-0.049733,-0.009943,-0.409808,69.393822,-7.884268,25.730577
55,843884498,67.988525,-36.805965,112.199127,-0.350200,0.370396,-0.356163,95.771118,-12.417100,24.467802
56,843901165,69.911354,-37.261665,112.025803,-0.553316,0.918990,0.422683,110.566040,-18.583447,22.336349
57,843917832,72.102737,-37.687454,111.623260,-2.037879,1.985625,1.086868,118.250313,-27.453903,17.717096
58,843934499,74.581940,-38.101742,110.920395,-3.602926,3.555016,2.437563,124.299278,-40.030701,14.058607
59,843951166,77.004692,-38.566437,109.816345,-2.998950,4.579345,4.150963,105.722160,-58.227016,14.045243
60,843967833,78.867279,-39.152122,108.216728,-2.906052,4.297181,6.003036,52.977180,-81.437019,18.488390
61,843984500,80.338608,-39.992649,106.055603,-3.207002,4.357858,7.454144,7.103292,-108.408745,31.285791
62,844001167,82.270348,-41.004753,103.422768,-4.169147,7.486182,4.439554,14.726171,-128.909607,41.560509
63,844017834,85.454727,-42.153496,100.271790,-6.006179,9.944384,1.527890,66.966400,-148.966614,53.062428
64,844034501,89.406837,-43.167522,96.810539,-9.516705,12.292987,0.809466,97.746506,-156.265366,53.540295
65,844051168,93.592621,-43.995872,93.181389,-9.418611,14.150325,2.486633,102.348122,-157.338867,53.363392
66,844067835,98.035690,-44.432545,89.558876,-6.712780,15.590127,1.617172,116.297615,-153.279480,41.344864
67,844084502,102.985611,-44.210182,86.220093,-5.855289,17.133291,-0.016238,158.282852,-144.315033,12.474135
68,844101169,107.886124,-43.084957,83.524254,-5.761837,18.479115,-2.404589,183.611938,-131.786148,-34.540619
69,844117836,112.811821,-40.629414,81.658531,-5.315038,17.632984,-7.625709,222.005417,-130.458405,-109.840172
70,844134503,117.380135,-36.388565,81.038551,-5.474381,13.819921,-14.009083,251.986877,-135.419189,-218.876358
71,844151170,121.086609,-30.369942,82.009567,-4.848890,7.784532,-17.093420,255.406403,-135.075882,-339.755737
72,844167837,123.275009,-22.838945,84.688141,-5.809851,0.630815,-14.578331,204.248550,-120.185745,-459.804626
73,844184504,124.684189,-14.410383,88.588898,-3.245301,-10.439755,-8.339611,160.305099,-99.801025,-544.064209
74,844201171,127.841812,-5.501486,93.750000,8.130937,-26.941467,-1.697637,243.693039,-71.186577,-612.125732
75,844217838,135.163101,2.557297,100.048737,15.540291,-46.696140,18.212587,449.046051,-38.344524,-613.328125
76,844234505,145.561722,5.957910,106.475060,29.280817,-40.949097,27.953133,595.734009,87.111794,-427.078033
77,844251172,150.748108,4.339236,110.466026,25.779545,-19.689541,-4.531027,290.918182,207.150375,-151.669907
78,844267839,150.721481,2.636918,110.680656,8.584967,-14.198521,-10.214088,-0.932003,94.240776,38.581398
79,844284506,146.128265,1.917496,108.139740,6.764755,-14.796786,-0.647233,-268.026581,-44.088203,152.309433
80,844301173,140.952484,0.432394,104.489670,12.984531,-12.517120,5.522998,-304.474518,-59.519211,229.036346
81,844317840,138.014420,-2.521451,100.920181,7.174414,-14.059790,5.234270,-178.599838,-5.424911,277.911987
82,844334507,139.291443,-6.082929,97.735954,0.638480,-11.389888,1.122892,63.746456,33.561596,284.189728
83,844351174,142.023697,-9.748223,94.596825,5.510948,-5.472061,0.153057,139.396347,50.830654,283.753326
84,844367841,143.646530,-13.546207,91.852104,4.205180,-2.605685,-2.304325,65.590981,83.204605,266.259338
85,844384508,144.298264,-16.953949,88.828552,0.760770,-2.103371,-3.706737,-7.088395,61.456253,261.869995
86,844401175,144.025375,-19.329243,86.598824,2.759850,-1.205993,-4.219253,-56.474003,40.163483,186.602158
87,844417842,143.209000,-22.191826,84.981499,0.724620,0.475584,-4.393919,-81.798424,83.517113,175.035324
88,844434509,142.698929,-25.205496,83.671280,1.792139,1.226471,-2.285869,-60.624561,100.008980,166.498947
89,844451176,142.242142,-27.953909,82.840508,2.022849,2.564099,-1.245465,-48.124660,102.669113,135.912659
90,844467843,142.124374,-30.972664,82.093910,0.185699,3.602992,-1.440728,-27.521498,118.193443,141.978455
91,844484510,141.851685,-33.884857,81.819290,0.315459,3.834213,-1.833436,-23.618479,128.111877,118.668800
92,844501177,140.968796,-36.795620,81.962097,0.369795,4.907930,-2.365258,-46.434547,139.860764,103.570648
93,844517844,139.977676,-39.688557,82.201393,1.111411,6.180387,-1.996603,-49.003078,140.028076,101.868805
94,844534511,138.972488,-42.635925,82.508797,0.310511,5.583453,0.354788,-46.597038,142.383743,104.436165
95,844551178,137.918045,-45.782948,83.022942,-2.133194,4.980789,1.945609,-40.187710,154.883591,108.775887
96,844567845,136.800644,-49.083195,83.723770,-3.015913,4.997741,1.441955,-34.512142,163.833328,113.261208
97,844584512,135.648193,-52.417206,84.564728,-3.186618,5.978462,-0.294050,-28.531250,165.412643,115.378975
98,844601179,134.807419,-55.734257,85.368912,-3.168494,7.877632,0.100347,-9.847735,160.101624,120.083496
99,844617846,133.943069,-58.958595,86.045288,-2.581072,7.600122,1.593664,-16.183966,149.805786,122.951836
100,844634513,132.935806,-62.149094,86.652023,-4.866966,7.433343,3.449676,-27.226398,143.461166,126.648209
101,844651180,132.255310,-65.318275,87.154938,-6.406312,8.176534,3.903513,-12.286416,137.359558,130.865356
102,844667847,132.266754,-68.387085,87.298775,-6.631118,9.774879,3.538254,10.081017,125.162331,133.874954
103,844684514,133.038666,-71.082611,86.987411,-8.078944,11.635143,2.529871,30.229158,103.634811,123.173103
104,844701181,134.143494,-73.094574,86.060478,-10.868689,13.052276,2.838593,14.802258,69.643898,99.009171
105,844717848,136.003540,-74.306328,84.233536,-8.620865,12.358377,4.186496,7.813778,28.538223,72.837456
106,844734515,138.789642,-74.732208,81.562561,-7.310823,11.420512,3.916991,14.132420,-11.367202,48.437119
107,844751182,143.899139,-74.510300,77.147659,-7.122303,10.281816,3.719370,52.559574,-55.495323,46.144474
108,844767849,150.944443,-73.374153,71.729156,-9.852626,9.264791,5.179895,111.628578,-107.035400,38.661472
109,844784516,155.318115,-71.305267,68.488091,-9.389770,10.303372,3.348850,78.437080,-138.609543,-3.933848
110,844801183,155.014572,-68.209366,68.756737,-12.497048,13.419394,1.346411,-1.751510,-167.502548,-83.598381
111,844817850,152.885086,-64.048393,70.465546,-11.637748,14.745313,-1.349076,-32.626556,-207.321274,-147.503433
112,844834517,150.753616,-58.758213,72.635773,-8.448005,13.965673,-4.330234,-12.172959,-251.591858,-205.478302
113,844851184,148.544434,-52.255993,75.389648,-6.522805,10.298247,-5.580463,5.066148,-290.599091,-278.562317
114,844867851,147.163879,-44.672504,78.640480,-6.763679,6.335016,-7.857002,64.564026,-317.639008,-352.305420
115,844884518,147.167175,-36.252426,82.396133,-4.457813,-0.570305,-11.347365,147.683685,-332.726318,-418.710663
116,844901185,148.680954,-27.153606,86.747177,-0.886673,-12.687465,-10.863861,229.047729,-345.821838,-478.881561
117,844917852,151.002701,-18.307888,91.943474,4.052218,-25.266769,0.157159,260.652679,-315.560760,-515.990051
118,844934519,155.192520,-10.081091,97.550262,16.316595,-32.120670,3.740100,334.484436,-293.759827,-514.879761
119,844951186,160.751389,-3.860932,103.926079,21.014584,-38.482243,14.014521,380.552094,-204.654816,-492.569427
120,844967853,164.600189,-1.892445,110.562828,25.116587,-24.697336,1.351113,251.937027,4.492840,-415.072937
121,844984520,163.327362,-2.401051,116.085266,14.435713,-11.169619,-8.430059,-62.509346,119.599922,-310.000153
122,845001187,160.249924,-2.704003,118.831932,1.053580,-4.733277,0.307346,-175.847229,67.598534,-150.836227
123,845017854,157.370331,-2.886310,118.491531,0.059958,-3.553311,-1.539231,-172.351639,1.722811,22.865620
124,845034521,155.462372,-3.785193,115.972641,5.432811,-4.368821,-3.757203,-121.841522,-12.031208,159.744186
125,845051188,154.968765,-5.830825,112.353966,9.782207,-5.764842,-0.042781,-46.389084,19.628611,247.778397
126,845067855,155.219940,-8.457671,108.578697,8.909534,-8.312457,2.584964,-11.676140,47.207493,270.150787
127,845084522,155.884094,-11.091092,105.482483,7.714125,-8.203501,2.514798,9.747350,67.035553,231.985901
128,845101189,156.479126,-13.883314,102.331123,7.075908,-6.164767,0.695189,-3.732547,77.694977,236.514404
129,845117856,156.643326,-16.820513,98.937798,7.469742,-7.498442,-1.552547,-42.570099,82.587799,250.217209
130,845134523,155.916977,-19.697237,95.831596,6.668287,-7.236494,-2.300058,-100.448151,85.849167,231.482758
131,845151190,154.867706,-22.476398,92.986382,4.098001,-5.606103,-2.283626,-122.829025,84.322525,214.294647
132,845167857,154.120651,-25.250164,90.180229,4.256931,-4.050406,-1.674715,-111.389519,82.948891,210.687866
133,845184524,153.348236,-28.067400,87.785347,2.927797,-2.711496,-1.153725,-109.258942,93.801933,190.032227
134,845201191,152.642853,-31.079096,85.830078,1.381695,-1.594431,-2.286640,-98.663918,113.716026,173.038666
135,845217858,151.879196,-34.210941,84.492119,0.768044,-0.086722,-4.816860,-87.563011,133.900818,147.369781
136,845234525,150.894714,-37.355171,83.832314,1.226339,1.399302,-6.434282,-80.664101,149.272934,118.626083
137,845251192,149.186844,-40.500603,83.851105,2.640808,1.895239,-4.281838,-100.209137,162.972458,93.578056
138,845267859,146.842697,-43.635941,84.516113,2.438235,2.155151,-2.037746,-112.343903,174.263138,74.604118
139,845284526,144.057098,-46.826889,85.797745,0.711348,1.802622,0.323132,-110.966888,187.390182,64.051636
140,845301193,141.228760,-49.976383,87.740265,-2.446121,2.868861,0.934133,-80.967232,196.123550,53.214794
141,845317860,138.824158,-53.076996,89.786392,-1.778128,5.337733,1.428683,-46.618526,190.585968,61.030922
142,845334527,136.332047,-56.030670,91.584229,-1.189306,8.713988,2.377159,-60.115166,171.969009,73.401093
143,845351194,133.637009,-58.806221,93.070190,-4.626281,10.655648,5.339581,-85.066528,150.610809,83.868408
144,845367861,130.947510,-61.450645,94.061646,-7.135142,10.159634,8.199190,-108.284637,127.602974,97.421913
145,845384528,128.925674,-64.178291,94.296127,-7.943888,10.089928,8.922152,-107.318573,108.896606,121.320816
146,845401195,126.837608,-66.740921,94.434074,-10.616294,12.131459,9.321152,-116.280487,96.028427,119.170219
147,845417862,126.491089,-69.418541,92.828651,-13.355317,13.942992,6.047812,-108.720604,65.977165,150.214798
148,845434529,127.165390,-71.429169,89.865410,-14.888994,15.610860,5.061312,-125.652054,23.509834,132.073822
149,845451196,129.305267,-72.594269,85.628632,-13.460817,13.849991,4.409057,-111.980255,-19.506615,103.229172
150,845467863,132.999252,-72.987633,80.421410,-10.474370,10.351046,4.922683,-75.413490,-55.143265,78.301231
151,845484530,138.418472,-72.922966,74.299072,-9.606511,8.721418,5.187704,-24.687551,-79.001709,74.045723
152,845501197,144.260468,-72.065689,68.401382,-8.743176,11.741591,3.886822,14.381868,-107.642830,50.690369
153,845517864,148.673477,-70.291946,63.921276,-7.729578,16.487000,3.895089,11.671866,-137.605072,13.202712
154,845534531,149.980743,-67.541382,61.897499,-6.847666,21.003220,5.222843,-33.535549,-165.274551,-46.953045
155,845551198,148.557510,-63.770786,62.080116,-4.144487,22.763638,5.277410,-74.036880,-193.239807,-119.868156
156,845567865,145.631363,-58.978836,64.124779,-2.895704,21.858269,2.027116,-66.429543,-210.517914,-205.926987
157,845584532,143.142838,-52.777718,67.269058,-5.142627,20.101749,-4.966929,8.391577,-241.848907,-303.056274
158,845601199,142.544830,-44.918941,70.908073,-5.776173,14.216819,-13.265283,129.994644,-289.964722,-399.703979
159,845617866,143.427658,-35.465908,75.189125,-6.144729,1.993740,-15.641621,220.044785,-335.642181,-498.570099
160,845634533,145.522659,-25.038576,80.631699,-0.995312,-20.531767,-5.813231,291.274719,-345.972626,-593.616638
161,845651200,150.070938,-14.893327,87.226540,2.408933,-40.856014,7.505972,408.476990,-317.446472,-639.760376
162,845667867,160.035248,-6.204494,95.015121,15.365194,-54.170059,9.093836,682.750061,-279.654510,-637.730164
163,845684534,173.374176,-1.864740,102.894119,24.458286,-44.247292,8.828518,833.292236,-146.006424,-520.274048
164,845701201,179.612595,-2.937681,109.505745,22.407764,-18.445562,-19.354340,391.863586,87.419807,-392.009491
165,845717868,177.131363,-4.958295,112.880455,3.807216,-2.065368,-4.872917,-133.475296,125.886360,-198.591293
166,845734535,171.214676,-5.601457,112.520592,-3.859759,-2.159106,-6.813618,-355.575348,35.215519,25.243776
167,845751202,163.992905,-4.955378,109.451164,2.691552,-4.707121,-11.325400,-448.737183,-78.281349,170.837891
168,845767869,158.159149,-5.332714,105.326912,7.988809,-10.364647,0.158895,-370.654877,-59.547878,240.515991
169,845784536,155.041595,-7.860990,100.909058,9.316586,-14.869884,2.366990,-215.971497,33.594482,301.876221
170,845801203,154.128815,-11.549273,96.799370,5.208174,-15.579239,1.802333,-94.875954,94.506470,314.460297
171,845817870,154.835861,-15.891483,92.461151,5.254732,-13.531029,-0.281204,-17.936213,125.102074,340.391541
172,845834537,155.393661,-21.637909,88.011436,4.309819,-10.025498,-6.989596,-51.051132,205.257706,374.397430
173,845851204,155.949921,-25.088947,84.531815,8.105300,-17.226984,-5.390851,-48.000221,108.711227,259.937378
174,845867871,153.794083,-28.985924,82.467865,1.189969,-0.811365,-3.004691,-184.121170,163.919846,199.188034
175,845884538,152.768127,-33.270794,80.292473,2.882277,-3.464506,-2.138833,-127.545860,178.440353,215.424011
176,845901205,152.288681,-37.865257,78.124519,0.669984,-1.223120,-2.496895,-102.958885,194.794769,221.075439
177,845917872,151.449051,-41.921864,77.716064,2.272216,-1.451737,-3.386416,-64.608543,204.830093,131.367157
178,845934539,150.303772,-46.025547,77.930679,-1.034656,1.921606,-3.256064,-58.284225,218.645935,111.769203
179,845951206,149.140991,-50.257496,78.482384,1.793723,2.234452,-3.105588,-43.612530,229.454956,108.961227
180,845967873,146.336578,-54.397560,80.233551,1.673316,5.026675,-0.966144,-83.552292,243.346497,78.292557
181,845984540,141.688263,-58.285946,83.306465,0.265188,7.112342,0.387289,-123.828079,247.791672,54.374470
182,846001207,135.621017,-61.792599,87.547737,0.273375,6.964734,1.603209,-141.931671,240.824524,43.506950
183,846017874,129.182236,-65.006111,92.646118,-1.150054,7.697498,2.902158,-111.176910,230.025116,49.898956
184,846034541,123.026855,-67.975266,98.288940,-1.861129,9.364244,3.771136,-57.267986,212.923920,64.198570
185,846051208,117.338646,-70.664444,104.113869,-1.475120,11.176679,3.799603,-12.755290,186.649918,77.244774
186,846067875,111.574669,-73.053146,110.328941,-2.559369,11.639146,4.669011,10.071821,163.862030,82.185806
187,846084542,105.531624,-75.127777,116.701187,-4.022348,10.864729,5.696661,6.620988,137.815536,84.445259
188,846101209,99.293007,-76.966904,122.790764,-4.963593,10.326924,6.770641,-18.231098,108.638306,88.623932
189,846117876,93.272591,-78.589798,128.162521,-5.789834,10.307786,6.579401,-44.742973,77.387260,89.135872
190,846134543,88.455353,-79.990501,131.760284,-6.458992,10.357030,5.947523,-75.478256,40.312901,83.293831
191,846151210,86.650742,-81.247833,131.938187,-7.341947,10.222190,5.127901,-96.292839,-2.543923,75.330017
192,846167877,89.595680,-82.407669,127.387032,-6.497111,10.168388,4.497132,-92.184937,-42.132133,68.103600
193,846184544,98.613663,-83.229927,117.042297,-5.097175,9.265313,3.559381,-73.336174,-74.842911,54.417744
194,846201211,111.668144,-83.315025,102.939751,-6.185956,8.037807,3.040703,-55.682728,-95.197594,30.569366
195,846217878,125.770424,-82.763565,88.230331,-7.072251,8.687280,2.901335,-28.586742,-110.387184,22.324749
196,846234545,135.444443,-81.439499,77.688583,-7.373441,9.503771,2.674479,-44.726761,-118.450493,-3.725066
197,846251212,140.444977,-79.428261,71.432343,-6.797183,12.480038,3.114063,-68.781006,-132.294968,-34.590755
198,846267879,140.740524,-76.617577,69.457359,-6.803490,15.533410,4.012657,-96.794289,-146.954056,-88.237930
199,846284546,138.152237,-72.756706,70.179237,-5.144317,17.597450,4.417223,-112.063087,-169.628510,-159.515213
200,846301213,135.013474,-67.502480,72.229805,-4.590757,19.699179,-1.470857,-71.053795,-201.265778,-247.256317
201,846317880,134.048889,-60.758053,73.858826,-4.753235,17.619251,-8.856463,31.565548,-254.411346,-318.612335
202,846334547,134.813385,-52.519913,75.650200,-7.407420,12.929874,-13.400827,137.010971,-304.846313,-394.621674
203,846351214,136.581741,-43.185047,77.690613,-6.875264,1.941245,-11.173660,198.077148,-344.490814,-450.313812
204,846367881,137.923264,-33.377781,80.928040,-3.199746,-10.953776,-6.684316,202.107742,-329.525269,-511.705322
205,846384548,139.703781,-23.531208,85.367645,-1.112975,-21.225611,-5.300783,234.924820,-291.158844,-565.594910
206,846401215,144.083740,-13.909982,90.691826,1.159364,-33.004753,-1.686260,365.995880,-268.229736,-594.769104
207,846417882,153.232788,-5.697220,96.765640,9.268977,-43.719543,10.364960,610.948669,-234.932968,-563.919434
208,846434549,165.734512,-0.746743,103.079842,19.693846,-33.603016,15.273296,771.525330,-146.668564,-459.470001
209,846451216,175.182327,0.131241,108.385948,18.689640,-15.118279,-5.039964,569.527710,-0.178585,-323.176758
210,846467883,177.943314,-0.914953,111.755295,5.725812,-5.393220,-6.556198,168.377350,73.744553,-198.142471
211,846484550,175.881836,-1.524441,112.486755,-0.446443,-1.180820,-5.350133,-121.352913,37.864994,-41.922115
212,846501217,171.958313,-1.090868,110.417274,-0.909843,-2.474613,-6.614130,-236.818344,-40.035133,120.633835
213,846517884,168.273300,-0.450203,106.769745,7.357055,-5.227311,-3.040196,-222.566895,-76.445419,208.952362
214,846534551,166.438080,-0.287381,101.976662,9.200741,-10.364929,2.180614,-110.492638,-73.478226,278.392151
215,846551218,166.077545,-0.493095,96.579330,7.925394,-13.760091,3.143021,-22.406773,-65.932007,317.419220
216,846567885,166.281647,-0.805848,91.315018,7.061169,-12.586084,1.822965,10.084960,-58.205746,311.099976
217,846584552,166.177612,-0.761450,86.345207,4.189147,-12.124325,-0.379605,-8.876384,-74.512238,288.890472
218,846601219,166.347061,-0.710214,81.386406,2.450151,-10.245445,-0.285261,7.790586,-74.580475,288.200287
219,846617886,165.911102,-1.171077,76.602554,2.518274,-8.157591,0.929300,-29.392172,-42.914562,285.192719
220,846634553,165.136368,-2.472662,72.303589,2.499859,-5.946405,2.408316,-53.187481,10.192008,269.090637
221,846651220,163.570786,-4.583974,68.940590,2.557928,-2.167092,3.309266,-104.832191,66.689041,228.055359
222,846667887,161.588669,-7.403864,66.420601,0.807482,1.728216,2.654280,-133.183548,115.438995,194.104736
223,846684554,160.110229,-10.916660,64.356354,1.194728,3.115158,1.755193,-106.899368,158.007507,184.625946
224,846701221,158.893448,-15.037565,62.952946,0.982752,4.022626,0.686249,-90.396545,201.876312,163.424652
225,846717888,157.864014,-19.639885,62.067352,0.486960,4.701505,-1.281760,-76.086479,237.027817,148.880188
226,846734555,156.680786,-24.573946,61.609715,0.524116,3.808131,-2.729077,-79.807884,262.228241,137.821167
227,846751222,155.400726,-29.576696,61.448563,-0.639419,3.581472,-2.577676,-79.681763,269.804291,129.731293
228,846767889,154.268921,-34.578217,61.372345,-0.144500,2.928582,-3.194874,-68.828918,268.948059,131.090256
229,846784556,153.390076,-39.500584,61.253826,0.038459,2.979688,-3.678239,-55.519909,261.543518,135.322571
230,846801223,153.067566,-44.293850,60.986912,0.317645,4.275288,-4.202995,-28.586004,250.370636,140.158417
231,846817890,153.612656,-48.787868,60.468357,-0.660560,6.631019,-4.131892,11.547651,230.335922,140.079407
232,846834557,154.884598,-52.898781,59.879005,0.218128,8.259261,-4.047611,50.296288,211.416534,127.239899
233,846851224,157.022583,-56.603973,58.639778,-2.115227,9.420441,-1.976375,68.935997,184.478302,129.730331
234,846867891,158.277328,-59.901703,58.090260,0.101536,8.593892,-0.365669,48.655323,175.354202,91.229515
235,846884558,157.810913,-63.049866,58.041542,-3.482996,9.963043,2.058346,-29.118422,173.611923,71.856567
236,846901225,157.456741,-65.948685,57.744442,-5.135508,11.629604,3.927311,-35.909889,156.861801,73.204872
237,846917892,156.502426,-68.388550,57.917442,-5.662306,13.042689,4.655754,-46.254433,135.245544,53.448906
238,846934559,155.032394,-70.173019,58.474396,-7.469491,13.427451,5.180749,-55.520760,101.416702,33.058094
239,846951226,153.714691,-71.320671,58.980453,-7.548370,11.921986,5.757648,-48.979847,65.347778,20.631899
240,846967893,152.805069,-71.938133,59.391903,-6.368899,10.411844,5.655917,-29.731752,35.517506,9.581268
241,846984560,152.188644,-72.127106,59.674221,-6.164762,10.109234,5.783663,-19.472025,11.403772,0.454287
242,847001227,151.235428,-71.885361,60.256210,-6.794402,10.641380,5.720702,-22.575243,-8.730166,-16.534880
243,847017894,149.643356,-71.072899,61.336983,-6.762404,10.725461,5.744754,-32.640110,-33.302723,-42.135151
244,847034561,148.175659,-69.711060,62.472279,-6.613641,10.380417,5.096936,-22.489214,-59.232365,-61.953232
245,847051228,146.752319,-67.767479,63.763729,-6.491363,10.598958,4.395483,-11.786168,-84.258240,-86.595848
246,847067895,144.975677,-65.212563,65.408463,-5.738447,10.656927,4.455203,-14.693089,-105.845322,-118.802826
247,847084562,141.908615,-62.033855,68.006516,-5.593991,11.152274,3.482024,-42.916145,-112.976601,-169.419022
248,847101229,138.795929,-58.158215,70.857132,-6.397719,12.386044,3.727309,-37.008366,-125.654701,-214.218903
249,847117896,136.194168,-53.506371,74.044556,-6.353147,10.550679,1.720436,3.630540,-134.188065,-267.937653
250,847134563,134.465881,-48.064014,77.594261,-4.045574,7.238320,-2.080465,62.837086,-138.517166,-325.501831
251,847151230,133.842865,-42.104851,81.580528,-2.613873,1.436561,-4.029853,133.460907,-128.843002,-374.332092
252,847167897,133.832413,-35.762611,86.152847,0.542792,-5.884601,-4.514477,173.218399,-110.523010,-422.445099
253,847184564,133.906586,-29.052395,91.361671,3.756661,-15.129576,-3.054343,173.392090,-89.617256,-473.221527
254,847201231,134.876068,-21.770008,97.098663,6.765571,-24.243149,-6.798408,207.237671,-84.198349,-529.850525
255,847217898,138.382324,-14.213023,103.110085,12.183258,-37.945206,-1.977656,322.763367,-94.694168,-560.958252
256,847234565,146.067184,-8.381402,109.444901,17.036947,-42.063351,10.490286,536.120667,-48.985767,-509.478119
257,847251232,154.199509,-6.666758,115.522621,22.519339,-19.055069,-3.580706,536.595581,89.978943,-365.179077
258,847267899,158.460327,-7.266716,119.971191,12.725169,-2.877386,-9.899583,289.301514,138.365067,-228.374603
259,847284566,161.283691,-7.475038,121.125824,-6.119725,0.368391,-4.485425,179.698853,34.387463,-60.285381
260,847301233,161.484894,-7.161932,119.617142,-1.329314,2.824535,-8.291079,1.953443,-47.465412,79.023979
261,847317900,157.923248,-7.177156,116.928070,2.448062,0.953425,-8.228497,-232.377457,-55.688229,150.422699
262,847334567,152.367737,-8.483007,113.725594,2.483217,-4.963301,-0.659163,-357.982117,-9.945372,205.672592
263,847351234,147.737015,-11.241876,110.328270,4.606738,-7.693244,1.153619,-311.199036,42.139721,256.655548
264,847367901,145.495667,-14.913738,106.894730,2.556201,-10.362107,0.811225,-179.589783,72.488838,288.741760
265,847384568,145.674042,-19.159586,103.509689,1.925314,-9.719543,-0.702893,-47.396305,99.333832,304.124390
266,847401235,148.350113,-22.221106,99.185295,4.247085,-14.159718,-2.435305,70.199364,20.850681,303.548798
267,847417902,151.047409,-25.785200,94.994446,4.617814,-10.147367,-2.545217,60.852009,67.666405,306.165436
268,847434569,153.289566,-29.612961,90.831894,5.390838,-8.971092,-2.533412,19.760456,98.791130,302.726654
269,847451236,154.931000,-33.233292,86.826172,4.089581,-7.243073,-2.646544,-25.455723,104.812347,279.331390
270,847467903,156.581604,-36.629547,83.047752,2.164084,-5.109419,-3.897360,-29.380930,108.457016,253.112747
271,847484570,158.380386,-40.150848,79.371605,2.394438,-4.068221,-4.406914,-27.668100,127.921356,240.606171
272,847501237,160.529160,-43.603981,75.733727,0.946973,-1.747454,-4.046134,-15.393238,135.942627,224.881531
273,847517904,162.717270,-46.892059,72.082176,1.314014,-0.472089,-3.039589,-22.916813,137.559235,208.575211
274,847534571,164.683487,-50.114563,68.682480,0.822682,0.977461,-3.737461,-33.397949,146.618591,183.984741
275,847551238,166.161545,-53.243614,65.698608,0.229072,1.917901,-3.008336,-50.353645,152.739929,154.703369
276,847567905,167.045898,-56.359367,63.222637,0.654607,3.506817,-2.054764,-66.890388,161.009506,126.625206
277,847584572,167.370102,-59.593113,61.176060,1.424839,5.061918,-0.282555,-83.206207,173.784943,106.476875
278,847601239,167.200226,-62.846443,59.563805,0.627757,6.869190,2.504630,-93.530312,179.155380,88.418793
279,847617906,167.088928,-65.914894,58.099079,-0.993126,8.444950,4.260674,-84.466095,170.017563,78.022324
280,847634573,167.338547,-68.800285,56.424591,-2.065545,9.426658,5.107307,-76.318825,159.236115,76.043175
281,847651240,167.724579,-71.621849,54.547600,-3.127570,10.031263,5.700428,-81.375359,156.018936,73.772820
282,847667907,167.656418,-74.288002,52.764481,-7.013406,11.123010,6.148130,-104.948128,148.551941,64.725769
283,847684574,168.013748,-76.549950,50.419884,-10.296267,13.883965,5.538598,-113.276848,124.129868,63.175117
284,847701241,167.982925,-78.128166,48.268169,-12.427625,16.269814,5.522717,-126.396584,85.678368,47.305595
285,847717908,168.449142,-78.911919,45.733379,-10.461783,14.143063,7.141989,-119.656380,38.793629,39.138145
286,847734575,169.366714,-79.274689,43.300995,-8.060995,9.489413,8.596279,-86.839355,14.987458,31.161137
287,847751242,170.927246,-79.550926,41.045509,-6.133973,6.848158,8.673672,-37.987488,11.023443,27.191702
288,847767909,174.971741,-79.297203,37.787296,-4.649944,8.364391,6.651754,51.901806,-20.556803,33.582447
289,847784576,178.550491,-78.773758,35.591000,-3.903600,9.910825,5.872099,86.754913,-33.819462,23.079870
290,847801243,-179.930878,-78.131577,35.187965,-3.716838,10.222069,6.438894,68.821373,-39.642170,4.193564
291,847817910,178.064743,-77.456512,37.686577,-4.707257,11.971557,5.534712,27.663193,-41.034775,-32.547653
292,847834577,171.571320,-76.665207,43.604744,-5.457269,13.057100,5.564246,-42.105064,-41.119259,-83.653557
293,847851244,162.034988,-75.433403,51.859882,-5.500577,13.773020,3.660041,-89.994896,-45.606403,-133.238846
294,847867911,150.745438,-73.298035,61.682262,-5.028769,14.498235,0.237731,-108.219208,-54.517876,-196.769379
295,847884578,140.568497,-69.805603,70.984589,-4.241014,13.194828,-3.683532,-79.369637,-73.991180,-263.831268
296,847901245,133.876709,-65.140419,78.208931,-2.417871,8.847723,-6.154082,0.662278,-93.405693,-311.894104
297,847917912,129.957718,-59.423069,83.887718,-1.995363,3.842055,-6.801380,68.212906,-112.081985,-361.159882
298,847934579,127.870430,-52.922573,88.557724,-2.537133,-0.488808,-9.254371,109.189262,-124.523148,-401.590271
299,847951246,127.001724,-45.550560,92.589920,0.650891,-6.659449,-12.054987,132.693329,-144.367203,-447.431122
300,847967913,126.127678,-37.457085,96.388435,5.179836,-15.932236,-12.970329,100.196716,-153.091965,-491.920074
301,847984580,124.057739,-29.208282,100.068443,9.192342,-28.437164,-3.207888,-1.148593,-134.499222,-511.173889
302,848001247,122.746506,-21.876806,104.355804,8.745219,-33.906136,3.017109,33.847736,-49.258957,-495.093689
303,848017914,122.618042,-16.103783,108.859520,7.704218,-23.859562,-4.208125,81.660660,27.126749,-429.554810
304,848034581,123.628761,-11.764756,112.216003,5.100215,-16.482922,-3.024191,110.498505,20.475046,-324.927734
305,848051248,125.605324,-8.779428,114.088432,2.322118,-9.063594,1.910113,139.979080,-11.795297,-210.299332
306,848067915,127.202286,-7.397407,114.578232,4.682475,-1.961288,2.492982,101.330414,-26.821878,-84.076874
307,848084582,127.770683,-7.729904,113.929611,3.872953,-0.684018,2.376663,30.373632,-19.487427,39.237392
308,848101249,127.760155,-9.484282,112.496902,3.668497,-2.115802,0.493062,-12.097894,-3.747881,135.196243
309,848117916,127.430824,-12.019056,110.320831,3.703113,-4.859503,-0.765444,-42.708397,-9.884255,198.692810
310,848134583,127.244865,-15.001222,107.518105,3.512872,-7.953078,-0.949505,-49.035942,-22.527010,241.365250
311,848151250,127.201469,-18.421928,104.282936,3.697065,-9.390457,0.918179,-57.015686,-24.937521,275.823761
312,848167917,127.559792,-22.070263,100.993378,2.825362,-9.798194,0.690639,-45.407017,-15.300591,286.299896
313,848184584,128.262192,-25.414991,97.911346,3.754625,-10.065799,-0.156322,-30.924665,-11.279370,262.299225
314,848201251,129.099197,-28.373638,95.008186,3.748476,-8.656494,-1.877695,-27.177938,-11.340702,235.645248
315,848217918,130.278442,-31.478502,91.840279,2.964728,-7.498832,-4.134006,-22.684677,-8.817843,248.540588
316,848234585,131.515823,-34.470379,88.592758,3.988393,-7.306215,-3.428533,-30.414660,-7.051640,242.702286
317,848251252,132.785294,-37.541119,85.268837,2.730138,-6.321822,-2.444401,-39.663780,3.022230,244.851196
318,848267919,134.284424,-40.633514,82.012451,1.347064,-4.119834,-3.087236,-31.843069,16.837355,238.973160
319,848284586,135.947922,-43.743107,78.857185,2.254824,-2.856661,-3.270230,-25.925213,32.188805,231.056503
320,848301253,137.714432,-46.787437,75.895103,2.193429,-2.172694,-3.607450,-18.846189,46.624523,216.210434
321,848317920,139.445526,-49.764297,73.145546,2.511252,-1.932092,-2.795133,-17.841816,60.279530,200.516571
322,848334587,141.128067,-52.722916,70.574699,2.289837,-1.655660,-1.746827,-17.910555,73.833504,187.729874
323,848351254,143.046875,-55.749054,68.106384,1.815988,-1.207366,-0.134333,-3.623559,89.034187,179.881790
324,848367921,145.717499,-58.908222,65.731140,1.379123,0.742735,0.942158,41.671036,108.252586,172.960617
325,848384588,148.932907,-62.155704,63.236629,2.734803,2.736147,1.817097,64.001579,123.222649,167.197220
326,848401255,151.827316,-65.469055,60.628845,2.946270,5.455879,0.537719,34.649521,137.636887,158.299377
327,848417922,153.767990,-68.620026,58.310345,-0.647228,10.069956,0.104732,-10.244318,142.288040,134.697861
328,848434589,155.297867,-71.407478,55.701553,-2.984951,13.710746,1.313296,-53.894745,126.915916,120.216820
329,848451256,155.437195,-73.705414,53.122742,-6.895583,17.140665,2.890434,-137.821869,104.924431,99.612106
330,848467923,152.920441,-75.401199,51.569237,-9.812504,19.773390,4.265635,-239.405487,79.727600,66.635918
331,848484590,148.180267,-76.552551,51.164974,-8.715230,17.899302,6.544952,-306.491211,56.222427,39.013855
332,848501257,143.718948,-77.378067,51.060684,-7.846137,11.914113,9.048363,-272.338379,39.200340,28.795511
333,848517924,141.138123,-78.000259,50.882793,-8.051003,10.159451,9.983240,-163.877014,27.153063,24.437258
334,848534591,142.852142,-78.463341,48.866966,-5.648923,10.021729,9.010033,-14.158906,5.663223,36.389271
335,848551258,149.226807,-78.517326,44.332958,-2.709664,9.946207,5.899977,117.302856,-28.667383,46.655762
336,848567925,156.104065,-78.021416,40.163322,-2.327939,11.936407,6.208031,169.064438,-50.809902,31.347494
337,848584592,160.716980,-76.762688,37.967907,-2.095842,10.300940,5.679223,149.601822,-81.841629,-1.240192
338,848601259,162.011581,-75.057457,38.102306,-2.291698,10.182728,5.792643,86.886284,-97.381622,-34.760330
339,848617926,162.499435,-72.931633,38.775227,-0.955721,7.271155,5.223047,69.460548,-119.145630,-49.687138
340,848634593,163.173248,-70.476730,39.487133,-0.647015,7.754562,5.008876,82.355362,-137.840012,-56.492992
341,848651260,163.350830,-67.729897,40.840523,-0.664404,8.159940,4.560151,87.898384,-150.551605,-75.420715
342,848667927,161.909302,-64.420174,43.697849,-2.616459,12.598278,0.167299,71.627045,-169.797974,-125.845268
343,848684594,158.710098,-60.323051,47.701153,-4.044147,13.595065,-4.683527,22.360754,-194.880905,-187.890396
344,848701261,154.693771,-55.271175,52.694561,-4.472427,12.275893,-9.218471,14.164856,-216.098312,-266.676819
345,848717928,151.028198,-49.172218,58.056862,-3.349365,7.031198,-11.338398,36.087749,-236.518524,-342.445099
346,848734595,148.055832,-42.347561,63.224575,-1.720635,0.778162,-8.044875,45.525921,-244.092987,-394.175354
347,848751262,147.112106,-35.135437,68.246544,-5.037270,-4.105639,-6.556113,133.494431,-240.111832,-430.544800
348,848767929,149.148010,-27.472485,73.268639,-5.934230,-11.716598,-9.564949,279.917999,-255.364960,-461.694611
349,848784596,153.005325,-19.752811,78.417023,0.409852,-24.571157,-7.327032,356.116425,-269.378967,-472.145752
350,848801263,156.657303,-12.925480,83.960815,9.929044,-32.772659,6.563086,313.681915,-235.817825,-463.427673
351,848817930,161.700821,-8.168442,89.335228,8.103231,-26.537453,8.385120,362.631897,-155.023071,-398.057983
352,848834597,167.884445,-5.798651,93.622978,8.728881,-18.157614,1.731418,403.458740,-71.237740,-283.980621
353,848851264,173.005768,-5.457182,96.416870,6.465738,-8.618175,-4.659491,325.050507,6.472421,-168.052673
354,848867931,175.204926,-6.220411,97.659767,1.907560,-4.802979,-5.580598,140.932098,52.161293,-69.171204
355,848884598,173.944031,-7.198833,97.525002,1.878007,-3.916821,-2.739384,-75.186508,56.680092,13.469833
356,848901265,170.376770,-8.048767,96.192146,1.384557,-5.356406,-0.921074,-223.217865,38.714367,85.420555
357,848917932,166.444809,-8.990607,93.830719,2.232599,-7.230775,-0.170188,-255.451569,26.216619,148.578644
358,848934599,163.701981,-10.605026,90.718536,4.408511,-8.268104,0.720428,-194.877136,45.199272,202.710831
359,848951266,162.526230,-13.088214,87.337181,1.017128,-8.188752,0.095055,-110.738869,83.878105,233.224518
360,848967933,163.144363,-15.290548,83.618515,1.086903,-9.810391,0.202530,-16.195177,61.404377,245.618408
361,848984600,164.744492,-17.368816,79.838066,1.200926,-8.315071,-1.625536,33.622189,58.630787,243.617737
362,849001267,166.505005,-20.170078,76.043678,2.125684,-8.394691,-2.707135,33.758469,108.285187,250.489075
363,849017934,168.012436,-23.004953,72.235237,1.255276,-7.973018,-1.622053,7.770426,118.034492,244.721909
364,849034601,168.970810,-25.753796,68.663834,-0.055652,-6.250646,-2.415481,-29.520191,121.683128,224.120895
365,849051268,169.268600,-28.665567,65.412659,-0.578830,-5.110388,-3.733357,-69.872597,137.837769,203.314758
366,849067935,168.824112,-31.527243,62.578903,0.037668,-4.279620,-4.867901,-110.456985,139.655319,177.039413
367,849084602,167.645691,-34.472656,60.263641,-0.171929,-2.006150,-4.514804,-144.872513,148.306000,150.090439
368,849101269,165.907837,-37.569393,58.534023,0.645753,-0.992273,-3.329978,-163.793747,160.738495,124.215187
369,849117936,163.387619,-40.807365,57.622658,0.915003,0.058705,-2.760438,-184.247589,175.192551,92.318130
370,849134603,159.652893,-44.196735,57.723576,0.972580,1.019033,-2.974579,-218.446457,193.369781,60.235882
371,849151270,154.356216,-47.570957,58.904911,0.942042,2.833092,-2.024979,-265.336945,204.718231,33.678368
372,849167937,147.783813,-50.538673,60.996731,0.163219,5.478676,-0.906842,-297.957458,194.692017,14.149937
373,849184604,140.484131,-52.896938,63.779556,-0.263902,7.794629,-2.017087,-305.350433,174.306763,-0.939653
374,849201271,132.930771,-54.769295,67.079201,0.846053,7.627224,-2.304896,-291.832031,160.889954,-8.027680
375,849217938,125.419312,-56.093300,70.944611,1.695566,7.682523,-0.590065,-258.183411,151.171906,-21.576900
376,849234605,118.464493,-56.952728,75.152733,1.792716,6.902634,2.328699,-205.180801,144.420914,-29.962919
377,849251272,111.817566,-57.488953,79.627815,0.935400,6.047358,4.509157,-171.567383,144.202850,-32.675060
378,849267939,105.626862,-57.799282,84.309250,-0.895248,5.976027,4.749032,-132.664261,147.274918,-30.662516
379,849284606,100.220581,-58.029854,88.743813,-1.734656,5.386602,4.458442,-97.469429,139.773071,-18.177906
380,849301273,95.581726,-58.206585,92.748337,-2.120527,5.462747,4.584374,-72.847618,126.087822,-7.003740
381,849317940,91.658539,-58.363422,96.200500,-2.693943,5.764862,5.594601,-57.739872,108.204941,2.442524
382,849334607,88.356812,-58.555355,99.070076,-2.321498,6.678409,5.524769,-49.928879,89.012291,11.420261
383,849351274,85.623695,-58.597538,101.115791,-1.399349,5.778166,7.343496,-57.812752,62.725117,5.793184
384,849367941,84.194290,-58.858330,102.332542,-1.782704,7.581231,6.035138,-21.938986,35.315556,18.845993
385,849384608,84.429092,-59.146694,102.450699,-1.555805,6.931729,6.413116,21.589790,0.875605,17.463587
386,849401275,86.517838,-59.523678,101.577621,-2.311683,6.870325,6.398260,81.688332,-29.462206,20.313253
387,849417942,89.926727,-59.851116,99.872513,-2.509445,6.783678,6.207493,117.629639,-53.267296,17.894188
388,849434609,94.672867,-60.132824,97.503029,-3.130289,7.629824,5.216238,163.067688,-71.411781,19.589853
389,849451276,100.288895,-60.166531,94.740524,-3.461990,8.959324,3.863128,194.604584,-82.586777,12.583685
390,849467943,106.391220,-59.813198,91.699654,-3.398442,10.649611,3.575975,209.533981,-94.741165,0.256386
391,849484610,112.851707,-58.848835,88.302048,-3.583283,13.037032,3.854479,213.650391,-118.436409,-19.759283
392,849501277,119.211555,-57.041721,84.874557,-2.969745,14.631423,2.580119,208.628998,-146.723328,-49.711449
393,849517944,124.915886,-54.410641,81.966904,-2.339498,13.712942,1.603249,199.381805,-168.159683,-81.827614
394,849534611,129.642319,-50.913002,80.086632,-3.790874,12.522272,0.351421,195.165222,-182.678329,-125.775391
395,849551278,133.277817,-46.559364,79.295380,-4.201017,9.022366,-0.440260,183.706421,-197.565979,-175.300766
396,849567945,135.525101,-41.578342,79.718620,-4.779387,6.017046,-3.108836,153.778458,-197.227478,-226.567566
397,849584612,137.058090,-35.813835,81.119637,-2.705145,0.366839,-5.226750,145.829422,-205.822342,-286.704926
398,849601279,138.562149,-29.551924,83.277672,-1.139812,-6.386810,-6.134689,161.450638,-206.297333,-333.355743
399,849617946,140.167114,-23.065664,86.429863,-0.309247,-13.435053,-4.660774,181.402206,-185.971146,-382.375336
400,849634613,142.752228,-16.896545,90.110458,2.459848,-20.635094,0.066502,231.770233,-161.230911,-393.225739
401,849651280,147.281815,-11.630007,94.456123,1.464195,-23.334789,3.827339,337.100708,-115.014236,-388.528900
402,849667947,153.599716,-7.761028,99.035652,6.701797,-20.812679,4.155340,426.392975,-69.326950,-350.457977
403,849684614,160.998032,-5.688852,103.333199,9.160963,-13.515060,-2.003582,475.223969,-16.901482,-284.555481
404,849701281,167.016678,-5.124155,106.635048,8.965798,-8.611647,-7.867761,381.077698,20.733265,-199.123215
405,849717948,170.289261,-5.218115,108.420746,3.494969,-5.094661,-4.855610,207.405151,25.488287,-103.610870
406,849734615,172.343430,-5.317085,108.189865,-0.093626,-2.088512,1.053603,123.390564,2.761961,14.456050
407,849751282,173.887024,-5.478596,106.235229,1.738592,-2.726321,-2.088659,82.985580,-5.398178,117.000198
408,849767949,175.113220,-5.882575,103.274574,2.540326,-6.543379,-2.922788,57.385803,6.163543,178.206787
409,849784616,176.293121,-6.612056,99.713356,3.179986,-9.858890,-2.876040,48.934643,26.716278,215.009384
410,849801283,177.485855,-7.562465,95.992287,2.799932,-11.423299,-2.488121,45.411419,43.917885,224.250412
411,849817950,178.288834,-8.772953,92.256989,3.307264,-11.262716,-1.696229,17.745806,63.418968,224.293320
412,849834617,178.302917,-10.172067,88.529526,4.374102,-10.279532,-2.476612,-34.526585,76.385254,222.929901
413,849851284,176.866104,-11.767778,85.093636,4.166719,-9.605866,-3.795021,-123.956772,86.188683,206.192612
414,849867951,173.912659,-13.620935,82.123711,2.592534,-8.621578,-3.619736,-214.840759,95.948296,182.185989
415,849884618,170.055923,-15.758708,79.574196,1.913317,-7.779285,-4.081335,-268.652740,105.497650,164.421295
416,849901285,165.816803,-18.070457,77.427147,1.327804,-6.196015,-4.171161,-290.272949,109.020180,149.541031
417,849917952,161.767105,-20.363892,75.595749,1.037798,-4.380684,-2.942919,-277.597839,102.314171,138.081421
418,849934619,158.015137,-22.671850,73.967010,1.840916,-2.489500,-2.645694,-259.413605,97.911423,133.037506
419,849951286,154.341919,-25.029669,72.691849,1.730229,-1.478211,-2.550261,-249.781036,100.281105,121.216911
420,849967953,150.808151,-27.518686,71.947182,0.391444,-0.004151,-4.750129,-230.250931,113.222572,104.415215
421,849984620,146.602524,-29.961800,71.794350,1.480540,0.877504,-4.481966,-255.190811,120.196754,83.095299
422,850001287,142.171310,-32.342178,72.292938,0.583509,3.095181,-3.188469,-248.842407,130.115463,62.439957
423,850017954,138.021622,-34.616184,73.322456,2.012533,4.050927,-0.846472,-213.355576,136.791351,48.080326
424,850034621,133.814178,-36.831608,74.906082,1.596496,5.224672,0.641907,-195.415451,148.197083,37.136204
425,850051288,129.263962,-38.866528,77.030182,0.727266,6.137339,0.605539,-193.263855,155.312164,24.720261
426,850067955,124.065979,-40.607468,79.858398,0.855947,7.022718,-0.367781,-201.840118,166.048553,5.915635
427,850084622,118.518906,-42.088081,83.297348,1.268207,7.899995,-0.186583,-194.948334,177.483002,-4.509311
428,850101289,114.797119,-43.574810,86.920982,2.980957,8.129815,3.597172,-73.963112,181.455048,8.198975
429,850117956,112.777603,-45.113640,90.421143,0.809514,9.042803,5.881181,27.128191,173.596451,23.907000
430,850134623,113.091545,-46.543297,92.873077,-1.143759,11.626802,4.167426,125.829010,126.766563,39.050884
431,850151290,115.868576,-47.794735,93.911606,-1.553575,13.108553,3.736398,213.778244,68.603088,50.775978
432,850167957,120.143684,-48.673176,93.687714,-3.027176,13.712023,5.508352,247.947510,15.764827,50.708389
433,850184624,125.212685,-49.234627,92.178787,-6.009210,13.428672,5.986262,237.312134,-32.963009,60.396816
434,850201291,130.769043,-49.469376,89.496216,-7.382028,12.190590,7.385736,212.691620,-75.086777,75.543518
435,850217958,136.030853,-49.547440,85.964134,-9.265667,10.706145,7.221876,155.943039,-97.896736,97.820786
436,850234625,140.235138,-49.294849,82.141747,-10.507339,9.902680,6.542177,79.453278,-111.981316,100.818764
437,850251292,143.647385,-48.743202,78.395271,-12.541991,10.281846,6.071687,36.403442,-118.064613,95.476738
438,850267959,146.728989,-47.974144,75.010155,-9.630508,9.181201,6.842854,34.454361,-116.058891,84.236267
439,850284626,149.656647,-47.192566,72.192032,-8.454826,8.287444,8.843477,52.155029,-101.104210,71.956047
440,850301293,152.496033,-46.504566,69.937149,-6.472495,7.760560,10.222788,72.967773,-82.035667,60.750374
441,850317960,155.437927,-45.815460,67.913445,-4.691856,6.517654,9.597069,90.219849,-75.227692,57.132530
442,850334627,157.617767,-45.170547,66.425842,-2.171953,7.548693,9.620308,68.411804,-61.589764,41.674728
443,850351294,159.050323,-44.293209,65.802368,-1.896096,8.311024,5.755553,60.891541,-59.925819,4.951427
444,850367961,159.538635,-43.021091,66.375610,-1.486135,8.065190,2.334206,54.300262,-63.812225,-50.587040
445,850384628,159.091003,-41.251934,68.245201,-1.826192,6.810982,-1.847979,49.652306,-71.151520,-115.638344
446,850401295,157.895920,-38.776066,71.354126,-2.825011,4.304353,-6.360078,49.508915,-87.053566,-187.700455
447,850417962,156.547302,-35.455132,75.507462,-2.424488,0.125113,-9.910343,70.770004,-107.963951,-260.671692
448,850434629,154.912689,-31.298130,80.553749,-0.427826,-5.030523,-11.164360,69.874847,-124.566231,-333.296692
449,850451296,152.918579,-26.365643,86.205559,1.561567,-11.143851,-11.309425,45.356068,-136.221268,-397.180389
450,850467963,151.609802,-20.853039,92.331482,4.414302,-19.149311,-10.120739,70.165352,-136.951736,-452.242584
451,850484630,151.427643,-15.333787,98.983307,10.177789,-28.168356,-4.286954,114.424034,-111.015671,-491.554962
452,850501297,153.152603,-10.800328,105.616936,16.095913,-31.731901,5.012783,194.712418,-61.401905,-469.900574
453,850517964,156.145233,-8.551471,111.577858,12.833993,-21.135618,1.697874,240.880966,28.042362,-376.535095
454,850534631,158.365707,-8.089789,115.426292,4.918498,-7.396469,-4.088611,167.995468,61.772354,-221.527267
455,850551298,160.042847,-8.349871,116.286583,-1.343690,-0.111980,-4.851000,109.407402,31.717470,-42.293182
456,850567965,160.437744,-8.984987,114.938766,-5.301329,-0.175737,-8.138324,12.905134,7.820167,88.048790
457,850584632,158.655823,-9.989890,112.214592,-1.851131,-1.606774,-6.772975,-132.444031,-0.870310,172.044510
458,850601299,155.757614,-11.849195,108.933281,1.827229,-5.468292,-4.468746,-209.738235,26.914268,221.378525
459,850617966,153.433716,-14.489130,105.342979,3.391897,-10.663459,-2.820150,-187.061020,52.047161,257.373260
460,850634633,152.630203,-17.759190,101.588753,3.968539,-13.592746,-3.373257,-109.354584,75.696976,281.774200
461,850651300,153.142456,-21.266813,97.947983,2.817831,-11.953155,-6.118989,-40.865936,92.478523,279.142273
462,850667967,154.107025,-24.386921,94.648453,2.834011,-10.997933,-6.786790,-17.569546,85.690605,246.620972
463,850684634,154.581009,-27.334770,92.075302,3.145396,-8.030860,-6.763740,-37.503269,98.372330,201.793900
464,850701301,154.079590,-30.708586,90.250656,4.445192,-6.176031,-6.549411,-81.769012,140.094208,173.987427
465,850717968,152.329773,-34.014500,88.884399,4.332657,-5.181559,-4.471189,-147.395538,144.978760,151.260849
466,850734635,148.951401,-37.302601,88.229614,3.043778,-4.210255,-2.337296,-224.101791,155.452972,124.620163
467,850751302,144.360977,-40.643333,88.535919,0.123240,-1.412574,-2.430089,-262.330170,174.470490,98.326958
468,850767969,139.516342,-43.800144,89.696793,2.525911,0.414311,-3.690838,-242.335632,180.075333,76.241760
469,850784636,133.526978,-46.723194,91.915184,3.327255,2.155552,-2.792306,-263.253418,190.850998,52.767384
470,850801303,125.959892,-49.427879,95.213074,1.110173,4.647974,1.579863,-305.198578,204.508713,40.311253
471,850817970,118.020203,-51.932873,98.970490,-2.359231,6.501518,6.959848,-300.374329,199.840118,51.841740
472,850834637,111.732300,-54.311184,102.498985,-2.509293,8.313434,8.052378,-206.385757,174.296646,76.040138
473,850851304,106.793777,-56.645283,105.778015,-0.683105,9.499921,8.367855,-132.701859,150.446533,95.418587
474,850867971,102.738403,-58.832539,108.742378,-0.437643,11.004126,10.074884,-91.432739,124.227028,102.683563
475,850884638,99.472229,-60.832581,111.357674,-2.832290,12.237974,11.188374,-58.847885,99.445305,102.528236
476,850901305,96.833893,-62.788803,113.492821,-4.417523,12.420869,12.816252,-43.935207,75.495049,107.541756
477,850917972,94.864182,-64.737869,114.935120,-5.519112,13.533043,12.351282,-39.115154,48.914883,112.348381
478,850934639,94.241096,-66.714737,115.337624,-5.041546,13.390907,10.520893,-13.922855,18.248192,117.329536
479,850951306,95.757225,-68.868286,114.164963,-5.450834,13.677135,9.277489,27.243622,-16.311838,130.879730
480,850967973,99.736168,-70.978348,110.908981,-4.556978,12.312307,6.714563,56.637375,-50.469299,134.256348
481,850984640,106.440269,-72.841347,104.994553,-5.215681,10.519839,4.268431,66.276718,-83.103600,133.464127
482,851001307,114.792152,-74.065079,97.377373,-5.192610,9.532004,2.111109,64.343590,-97.048210,114.141899
483,851017974,123.211174,-74.386528,89.526497,-3.616433,8.049333,1.080595,53.178585,-103.689209,78.620232
484,851034641,130.888916,-73.893402,82.386124,-3.618916,8.195741,2.704007,49.906590,-112.292412,46.668964
485,851051308,137.156311,-72.748451,76.632187,-1.114931,7.161803,3.932220,46.683403,-120.017639,19.223616
486,851067975,141.935944,-71.044434,72.253563,-0.313347,6.939219,2.526761,38.407974,-131.823059,-4.461888
487,851084642,146.066772,-68.748184,69.149376,0.892155,6.768590,1.748460,74.268997,-150.178619,-29.438549
488,851101309,149.203445,-65.744926,67.516449,0.116665,8.587992,-0.094331,99.170975,-173.622849,-64.722076
489,851117976,151.545380,-62.013622,67.072472,-2.078556,8.868580,-2.990876,117.905472,-201.575241,-100.751732
490,851134643,153.207794,-57.496349,67.765816,-2.917508,7.167115,-7.057513,136.992386,-231.608963,-144.522018
491,851151310,154.130173,-52.194672,69.515457,-4.028739,2.808835,-9.328095,142.512222,-259.449799,-195.561966
492,851167977,153.708069,-46.387699,72.234596,-3.097254,-1.457646,-8.421757,99.747948,-267.268433,-249.011429
493,851184644,151.930511,-40.451694,75.785088,-1.374817,-6.418693,-5.896158,41.292130,-247.179688,-300.577911
494,851201311,151.097504,-34.647503,79.608330,1.528908,-13.389390,-4.736156,91.267952,-220.372833,-326.151947
495,851217978,151.052765,-29.050270,83.852928,1.036838,-15.625712,-6.546732,133.119232,-190.284103,-351.977051
496,851234645,151.243759,-23.875536,88.325470,1.143314,-16.956770,-6.955678,132.433212,-156.980026,-360.388519
497,851251312,152.331604,-19.381693,92.726433,1.739766,-16.929649,-4.309197,163.932922,-122.522842,-343.910156
498,851267979,154.714188,-15.878721,96.799408,3.356271,-14.271635,-2.094451,218.258789,-85.282890,-302.331329
499,851284646,157.105927,-13.344620,100.417374,2.300127,-11.767696,-1.461783,199.585785,-54.058403,-253.959061
500,851301313,158.911270,-11.758472,103.374313,1.587708,-7.530857,0.338870,148.224594,-24.403965,-196.299942
501,851317980,159.952896,-10.988751,105.443230,1.505929,-3.214144,-0.114566,88.351967,-1.490021,-130.252930
502,851334647,160.360886,-10.645831,106.371056,0.618095,-2.077647,-0.161592,36.308716,-1.799412,-58.497608
503,851351314,160.289749,-10.670184,106.306259,-0.234000,-2.447493,-0.831795,-3.604270,-0.915091,4.014822
504,851367981,159.619919,-11.091475,105.469513,1.418396,-1.851279,-0.483260,-48.282936,5.846164,54.905731
505,851384648,158.381790,-11.927378,104.002663,1.992848,-2.859439,-0.307292,-90.457069,14.917408,98.417336
506,851401315,156.661346,-13.266780,101.898026,4.186747,-4.794787,-1.016141,-129.359161,26.139116,144.541229
507,851417982,154.918289,-15.189801,99.181931,4.673316,-8.622004,-2.487229,-143.209564,39.452766,191.333603
508,851434649,153.616745,-17.509659,96.185638,2.991433,-11.637327,-6.221003,-127.263252,49.496181,215.780121
509,851451316,152.575851,-20.213316,93.056427,3.689611,-12.557927,-6.061806,-121.716377,63.276184,231.818069
510,851467983,151.087067,-23.229944,90.145088,6.354123,-11.298517,-3.632789,-152.518768,81.991165,228.491760
511,851484650,149.282394,-26.644716,87.650826,5.795265,-10.643835,-0.878956,-169.899933,109.348595,219.632248
512,851501317,147.505203,-30.223631,85.756683,2.210282,-7.245835,-3.396852,-159.260086,129.581482,197.696945
513,851517984,145.910278,-33.808468,84.281281,0.998858,-4.149726,-5.648554,-141.140198,137.671814,180.854706
514,851534651,144.528580,-37.249119,83.196442,1.316356,-2.198709,-5.680765,-119.243454,138.425201,161.320084
515,851551318,142.997910,-40.470612,82.669029,2.045829,-1.234291,-4.192925,-110.207329,140.422455,134.188705
516,851567985,141.055954,-43.522682,82.768883,1.765299,-1.376790,-2.285672,-111.019798,146.171738,109.225311
517,851584652,138.751846,-46.519871,83.480545,2.150221,-1.936695,-0.594152,-106.545380,156.069504,92.797310
518,851601319,136.007889,-49.437347,84.914749,1.536611,-1.100225,0.944197,-99.207375,166.870514,76.200996
519,851617986,133.000443,-52.271145,87.176949,0.773367,0.173186,1.215329,-73.677071,179.326065,61.250023
520,851634653,129.630981,-54.876060,90.067009,3.811518,0.177739,1.997888,-61.132885,179.538727,49.446934
521,851651320,125.332977,-57.191257,93.586876,3.523045,0.713656,4.177765,-81.206863,177.157196,38.460915
522,851667987,119.972755,-59.330063,97.925377,1.463779,0.618148,6.422428,-98.697304,183.497604,34.174583
523,851684654,113.883034,-61.431267,103.278603,-0.266803,1.273419,8.163210,-84.606125,197.553574,40.490032
524,851701321,107.310638,-63.297558,109.592766,-1.081291,5.240092,7.336550,-57.149647,202.779480,42.940109
525,851717988,100.567314,-64.974533,116.440536,-2.193878,9.157871,6.117543,-33.340912,197.069901,54.391346
526,851734655,94.293335,-66.392662,123.254425,-4.221180,12.742437,6.728552,-2.352600,176.827499,62.500473
527,851751322,88.926704,-67.685150,129.347290,-6.010628,14.915088,7.072891,16.088913,143.650391,73.413284
528,851767989,84.357498,-68.954971,134.587860,-7.570185,16.189634,8.113222,19.496830,110.429527,82.750923
529,851784656,81.731339,-70.271126,137.466507,-7.284003,16.583979,7.769756,5.768338,49.111916,85.577286
530,851801323,80.423302,-71.583664,137.945557,-10.543196,17.845375,4.310975,-49.878407,-3.995948,79.145805
531,851817990,81.055031,-72.896416,135.985107,-8.232624,16.122044,3.300475,-72.680405,-49.155048,71.800606
532,851834657,83.443504,-73.898499,131.962646,-4.590683,13.706489,3.187916,-86.538574,-77.499634,50.049484
533,851851324,87.353569,-74.487137,126.450310,-2.852091,10.894220,3.753436,-82.208107,-93.691391,27.724043
534,851867991,92.648033,-74.740578,119.921555,-1.522061,8.429525,4.271148,-58.592083,-104.971779,14.942115
535,851884658,98.917961,-74.661385,112.872849,-2.225692,8.254557,3.493261,-30.349642,-112.534859,6.271898
536,851901325,105.303841,-74.122475,105.982643,-1.569982,8.242022,2.760456,-13.615656,-116.567482,-8.505355
537,851917992,110.777840,-72.887665,100.077469,-1.036618,8.353268,1.577434,-9.913992,-119.637619,-39.488594
538,851934659,114.811127,-70.951927,95.696579,-1.000650,7.567575,0.380533,-6.510014,-121.269424,-75.687141
539,851951326,117.181679,-68.478493,92.945396,-0.422089,5.471421,0.367026,-11.227015,-117.586639,-108.570656
540,851967993,118.315338,-65.528114,91.447639,-0.012614,4.240008,0.601043,-13.320759,-114.609718,-140.611374
541,851984660,119.139130,-62.021786,90.553604,0.632673,3.636536,-0.890540,2.688231,-123.030289,-173.394989
542,852001327,120.413925,-57.773895,90.042412,0.368053,4.008091,-4.352466,51.311123,-141.061722,-213.887527
543,852017994,122.257317,-52.656216,89.842758,1.050956,2.908488,-9.420423,102.086899,-166.673874,-259.032837
544,852034661,124.058937,-46.605175,90.096504,1.120524,0.039133,-11.308073,120.998512,-191.481827,-309.655243
545,852051328,125.543602,-39.565964,90.640747,1.003730,-4.199214,-10.393916,112.691071,-222.620316,-360.734192
546,852067995,128.020004,-31.528030,90.970901,2.607584,-12.021418,-8.801500,161.256882,-277.044434,-396.222839
547,852084662,130.890594,-22.775791,91.813095,3.294431,-20.438622,-6.632205,196.378616,-300.152161,-434.347961
548,852101329,133.283691,-14.625156,93.858940,0.456157,-28.055914,2.126365,184.122604,-242.548355,-441.115784
549,852117996,137.869797,-8.187082,96.891190,-0.063038,-26.571310,7.957045,312.210266,-152.062180,-398.016998
550,852134663,144.160004,-4.514352,100.454132,7.952459,-13.824053,4.993054,402.200562,-38.602200,-304.047302
551,852151330,147.121674,-2.909402,104.287407,10.169647,-4.515431,-10.605207,193.910980,49.063076,-243.906357
552,852167997,146.161530,-2.071935,107.311943,1.133037,-1.936361,-4.957627,-48.285736,56.731079,-179.116760
553,852184664,144.168579,-1.580276,108.479836,-2.953820,2.716769,0.151522,-115.916565,14.791264,-74.391464
554,852201331,141.466492,-1.488922,107.771889,-4.299829,0.813949,2.790303,-161.840042,-31.041332,30.459198
555,852217998,138.803894,-1.959731,105.772705,-0.669670,-1.139154,3.469236,-161.936401,-56.190693,110.077896
556,852234665,136.585022,-3.429216,103.338791,2.281680,-3.815927,2.437618,-138.563080,-34.007893,167.168961
557,852251332,134.398376,-5.601548,100.813156,3.240634,-4.903491,-0.731612,-141.679962,-13.975073,199.051468
558,852267999,131.966232,-7.764515,98.273605,1.846838,-6.836504,-0.511372,-162.200958,-22.566383,198.162598
559,852284666,129.256287,-9.547146,95.916763,1.938576,-7.081649,0.756583,-182.420456,-37.512245,172.177673
560,852301333,126.605835,-11.862950,93.650406,1.398693,-7.640334,0.295809,-182.817307,-20.973455,191.730087
561,852318000,124.335495,-14.372735,91.181145,2.185542,-9.450151,0.694781,-168.374817,-31.127413,206.383698
562,852334667,122.488022,-17.204966,88.597603,0.952621,-10.165550,-0.508059,-151.550034,-31.931961,224.016373
563,852351334,121.306183,-20.394426,85.944580,1.980785,-10.459470,-1.790645,-120.742432,-27.814053,242.141846
564,852368001,120.508812,-23.738462,83.325089,2.805017,-9.936893,-2.400617,-105.417084,-22.895115,247.030655
565,852384668,120.078812,-27.181980,80.833740,1.896704,-8.258424,-2.148437,-88.592392,-13.303058,246.572510
566,852401335,119.869987,-30.647551,78.461876,1.198499,-6.620694,-1.750883,-79.870819,-5.016849,242.477814
567,852418002,120.017082,-34.082436,76.344604,1.520705,-5.232200,-2.602086,-57.699158,8.915040,232.268951
568,852434669,120.260101,-37.404541,74.598076,1.215982,-3.319267,-3.795310,-45.152100,25.542570,215.232956
569,852451336,120.469742,-40.577473,73.268478,1.496593,-1.937965,-4.212177,-36.134937,41.744751,195.769562
570,852468003,120.551460,-43.509426,72.453194,2.094907,-0.656875,-4.480681,-26.360407,57.033600,170.170197
571,852484670,120.190910,-46.157547,72.316422,1.948503,0.716240,-3.878324,-25.916010,74.319061,140.193985
572,852501337,119.169029,-48.478123,72.991081,0.804489,2.995655,-2.649925,-30.037952,91.788048,107.537979
573,852518004,117.424217,-50.373569,74.443398,0.800576,4.513701,-1.276233,-37.001369,102.799034,73.418938
574,852534671,115.024757,-51.801186,76.675400,0.898972,5.991831,0.061356,-38.266895,112.282295,39.796318
575,852551338,112.151123,-52.853535,79.569283,0.644351,7.396046,2.702173,-33.492413,121.470261,15.509953
576,852568005,108.848663,-53.500607,82.892204,-0.610392,9.874148,4.195378,-37.061939,124.466484,-5.393677
577,852584672,105.287781,-53.781349,86.299713,-1.254207,11.192080,4.856260,-47.522453,119.748802,-19.410297
578,852601339,101.782036,-53.783165,89.561188,-1.932291,11.870506,5.427112,-50.999229,111.369728,-26.919176
579,852618006,98.656517,-53.738712,92.488228,-3.335290,13.003263,6.522493,-44.422466,100.627594,-21.046015
580,852634673,96.162857,-53.853149,94.825325,-4.294039,13.415913,6.603430,-35.023441,81.950836,-3.915703
581,852651340,94.485115,-54.186043,96.429482,-4.672006,13.360923,6.076953,-21.337788,57.091282,14.554100
582,852668007,93.800751,-54.793537,97.141388,-4.616546,12.886090,5.004673,-4.856713,26.318962,34.437935
583,852684674,93.888069,-55.557556,97.022110,-4.384423,12.479875,4.174141,0.797054,-2.063221,45.851536
584,852701341,94.797180,-56.331455,96.235809,-3.995996,11.802641,2.543083,16.888018,-23.884098,48.107971
585,852718008,96.146172,-56.876877,94.938148,-3.486017,11.251286,1.821454,17.365398,-40.591640,36.436207
586,852734675,97.607727,-56.982174,93.320503,-3.775410,11.878447,1.052790,7.772083,-52.879604,12.366795
587,852751342,99.422859,-56.508320,91.542412,-3.377688,12.340307,0.692806,21.105562,-63.120293,-19.727442
588,852768009,102.004402,-55.442589,89.976898,-3.109029,11.807072,-0.077418,78.442665,-64.588356,-53.354919
589,852784676,105.208054,-53.732777,88.604248,-3.543797,10.317436,1.557788,126.476578,-71.587921,-88.804733
590,852801343,109.180618,-51.672710,87.215424,-5.088161,10.413662,1.624578,173.418335,-85.865311,-103.494225
591,852818010,113.727791,-49.046082,85.958145,-4.287917,8.636405,1.069251,216.063568,-103.541512,-129.443710
592,852834677,118.243881,-45.474415,85.162704,-3.580048,8.455250,-2.937209,237.181839,-124.151260,-178.834427
593,852851344,121.758026,-40.666206,85.111694,-3.979876,7.077487,-7.287941,209.985321,-147.346817,-249.122604
594,852868011,124.524361,-34.576523,85.681282,-3.641406,2.922770,-8.626667,188.038956,-178.260025,-321.146393
595,852884678,127.041725,-27.506887,86.867867,-2.235785,-4.562179,-5.667857,188.924789,-199.690308,-380.185669
596,852901345,129.103592,-19.719860,88.655922,1.205427,-16.532124,1.443002,167.858414,-211.850372,-428.803040
597,852918012,130.570221,-11.665679,91.630737,1.207449,-24.764839,5.612514,137.499313,-178.627441,-481.451355
598,852934679,134.136398,-3.980920,95.918243,2.133247,-31.200686,5.860977,249.949539,-123.167313,-512.729004
599,852951346,141.031250,2.107201,101.395569,6.297884,-31.158539,10.163765,419.714661,-48.849880,-489.350372
600,852968013,148.972855,5.177661,107.392853,14.121283,-17.900061,1.439156,454.433350,54.224438,-400.164825
601,852984680,152.801392,6.252281,112.501373,15.484277,-3.746302,-7.876032,200.399582,91.119629,-297.930847
602,853001347,152.484528,6.404191,114.771225,2.572052,6.673610,-3.610409,-32.615730,53.127495,-124.457550
603,853018014,150.132690,6.234918,114.073112,-6.244549,1.946743,-3.585224,-135.076859,-12.071734,41.343109
604,853034681,147.097778,5.710259,111.476547,1.561698,2.554378,-1.053216,-164.440125,-54.834538,148.617599
605,853051348,144.517944,4.117576,108.555412,3.310114,-1.974099,3.477718,-138.314667,-20.121407,198.084702
606,853068015,143.208130,1.539744,105.836723,3.116037,-5.357283,1.344583,-69.085663,27.799786,222.721619
607,853084682,142.887405,-1.324601,103.449272,0.698621,-6.813058,-2.384652,-17.539055,50.200134,217.732208
608,853101349,143.355011,-4.094956,101.035065,0.298447,-6.101144,-3.969861,22.622778,45.118542,215.441254
609,853118016,143.674194,-6.580711,98.409393,1.870161,-6.479223,-2.234604,5.912599,25.640257,214.755753
610,853134683,143.396713,-8.926863,95.626198,2.839524,-7.411663,-0.572269,-37.744736,13.873260,216.698181
611,853151350,142.566101,-11.492264,92.964523,3.211333,-7.945873,-0.089329,-76.691238,27.286177,218.144897
612,853168017,141.477692,-14.333676,90.359634,2.950678,-7.896536,-0.887722,-98.762764,39.662498,224.985092
613,853184684,140.794983,-17.256277,87.714981,1.348330,-6.649137,-2.102806,-82.688797,39.755760,228.926498
614,853201351,140.655197,-20.238842,85.171623,1.903745,-5.987251,-1.696272,-55.976406,46.082218,225.162872
615,853218018,140.489716,-23.241598,82.973419,1.787125,-4.454511,-1.455212,-57.312424,60.400654,209.072769
616,853234685,140.186249,-26.130104,81.103416,1.965904,-3.860448,-1.664559,-63.594593,67.392784,189.128952
617,853251352,139.343613,-28.940622,79.725899,0.753934,-2.259866,-2.751903,-87.281929,80.439896,164.919571
618,853268019,137.915222,-31.643465,78.794098,-0.013739,-1.032558,-3.214561,-112.405884,88.845543,143.458389
619,853284686,135.978638,-34.151211,78.219696,0.089270,-0.084511,-2.468662,-133.422043,89.235046,123.923782
620,853301353,133.778336,-36.434139,77.979790,-0.117751,0.885720,-1.322564,-138.845490,87.360344,105.408401
621,853318020,131.388809,-38.537441,78.050659,0.399298,0.978403,-0.257440,-139.295258,86.905937,90.686531
622,853334687,128.696564,-40.452602,78.485565,-0.115410,1.781920,-0.211934,-143.451721,88.364471,75.060295
623,853351354,125.877518,-42.133572,79.300003,-0.573258,2.581583,-0.664776,-135.420776,89.317581,58.043098
624,853368021,122.662506,-43.563858,80.477058,0.052897,2.840671,-0.340048,-143.397964,90.110703,41.792286
625,853384688,119.252182,-44.765053,82.120071,-0.854662,4.495316,0.295582,-134.466064,96.702499,25.448740
626,853401355,116.032623,-45.762371,84.048454,-1.075458,4.956822,2.149652,-109.520554,98.880432,15.232905
627,853418022,112.935837,-46.586330,86.013344,-1.005283,5.687696,3.897690,-99.299057,93.753784,11.152295
628,853434689,110.043015,-47.238842,87.934563,-1.846833,7.503169,4.434328,-87.935974,86.575027,7.562576
629,853451356,107.751236,-47.798630,89.564499,-2.006105,8.596471,4.424972,-63.941753,72.323128,10.349072
630,853468023,105.991722,-48.220657,90.817749,-2.520398,9.708578,4.249206,-48.249168,54.441738,9.574419
631,853484690,105.009941,-48.546249,91.563919,-3.389534,10.507695,3.669602,-24.005266,32.824986,10.796888
632,853501357,104.870354,-48.822948,91.696243,-3.602221,10.718493,3.801934,-0.987665,8.293329,14.584237
633,853518024,105.574890,-49.150349,91.122589,-4.149208,10.832242,4.266339,17.719936,-17.689171,24.755444
634,853534691,107.210457,-49.515903,89.811119,-3.948147,10.263408,4.394141,39.858032,-44.058128,35.360352
635,853551358,109.243484,-49.848934,87.919846,-4.097589,10.361123,3.569631,36.866283,-64.543335,41.765877
636,853568025,111.885124,-50.102875,85.618111,-3.279128,10.294176,2.163199,54.135506,-78.859360,45.264133
637,853584692,114.626106,-50.084496,83.228760,-2.235122,10.043345,1.006988,55.876190,-85.991241,35.084167
638,853601359,117.505783,-49.634022,80.858772,-1.566926,10.001018,1.042621,65.453789,-95.286575,15.774908
639,853618026,120.130585,-48.780800,78.844742,-2.522403,9.386904,0.269920,67.373047,-94.921089,-7.033827
640,853634693,123.183258,-47.504429,76.842316,-2.944728,8.408282,1.328769,95.032181,-109.516098,-23.358702
641,853651360,126.112366,-45.833527,75.150467,-2.348243,7.436983,0.932462,103.253067,-115.392235,-43.129108
642,853668027,128.982117,-43.683071,73.750999,-2.796594,9.040606,-0.713865,114.386208,-127.007133,-66.224243
643,853684694,131.693832,-40.942181,73.071053,-1.423309,6.429824,-2.838464,136.549622,-130.567673,-106.100471
644,853701361,134.273315,-37.590538,73.169861,-2.482457,7.617302,-5.210028,159.817993,-134.883514,-150.528854
645,853718028,136.486801,-33.458385,74.021271,-2.435292,6.255840,-6.189316,163.778183,-148.406464,-204.035507
646,853734695,138.129044,-28.375759,75.510109,-1.428553,3.254755,-6.953102,145.706451,-173.323257,-263.391571
647,853751362,139.950089,-22.341850,77.925774,-2.676726,-0.371222,-8.620830,172.575134,-188.651260,-336.516815
648,853768029,142.823029,-15.420647,81.201805,-3.335314,-8.968890,-6.384380,237.103546,-209.479721,-404.800385
649,853784696,147.013123,-7.931927,85.503914,2.052594,-21.924194,2.394187,304.550262,-223.375870,-465.482635
650,853801363,151.974503,-0.897532,91.103310,7.975770,-32.748669,17.360764,324.306427,-194.419525,-503.206116
651,853818030,158.529358,3.819448,98.093887,7.660216,-33.226330,19.748842,383.260254,-82.258614,-499.601227
652,853834697,165.346603,5.452026,104.937607,13.605873,-21.869297,-4.917081,376.712280,32.877541,-419.767639
653,853851364,167.993607,5.339446,109.878281,14.313949,-3.071684,-10.488554,132.241013,73.635834,-285.703552
654,853868031,167.940598,4.793899,111.042061,-4.054943,8.712026,-4.136866,-7.926335,45.549221,-61.268101
655,853884698,166.378357,4.738612,109.013000,-9.693733,1.152507,-8.819090,-82.185440,-24.715836,118.958481
656,853901365,162.776871,4.596869,105.344170,4.919283,3.142329,-7.970016,-196.692245,-51.155674,213.718765
657,853918032,157.617355,3.238150,101.638969,5.351094,-3.186797,2.876021,-292.832367,0.531287,236.289093
658,853934699,153.194992,0.720092,98.108841,1.121917,-9.602225,1.026918,-256.461609,48.246510,255.336548
659,853951366,150.509445,-1.843924,94.340836,-1.264766,-10.466445,-0.500017,-161.828705,27.964830,271.864777
660,853968033,149.412109,-4.575108,90.771645,1.259603,-9.953795,1.343989,-76.366364,33.807663,267.080231
661,853984700,149.496841,-7.464921,87.482071,0.309054,-9.814179,0.492081,-14.185505,48.568756,257.130066
662,854001367,149.935226,-10.315101,84.298553,0.938888,-9.611208,0.158825,-1.789699,51.524513,249.174240
663,854018034,150.204254,-13.075133,81.145653,2.512158,-8.975546,0.176014,-20.766607,50.123886,243.145782
664,854034701,149.829102,-15.899490,78.158371,2.986483,-8.011418,1.190662,-65.881294,59.101315,235.006729
665,854051368,148.849045,-18.952660,75.471321,2.110878,-6.889820,0.772468,-105.590378,78.193443,225.758255
666,854068035,147.358536,-22.130356,73.149796,1.208857,-5.212071,0.132317,-136.790619,92.021431,211.521255
667,854084702,145.373764,-25.366135,71.283913,0.774397,-3.643631,-0.253114,-162.641205,103.961861,192.911484
668,854101369,143.446381,-28.610104,69.856133,-0.097260,-1.895596,-1.037299,-152.991989,112.924179,175.426559
669,854118036,141.275284,-31.771116,68.790863,0.855735,-0.694668,-0.056052,-160.881393,115.516487,159.650146
670,854134703,138.791153,-34.856663,68.158066,-0.257359,1.429309,0.200579,-168.367737,120.571121,143.316803
671,854151370,136.263962,-37.917507,67.936302,-0.301656,2.007766,0.232671,-158.000000,127.275398,131.988892
672,854168037,133.341995,-40.913513,68.175148,-0.401411,2.676469,-0.088513,-164.685699,133.572189,119.813034
673,854184704,130.115936,-43.795635,68.877121,-1.008511,4.273566,-0.468705,-163.660004,137.360840,108.401512
674,854201371,126.835754,-46.431625,69.748650,-1.143983,6.006452,0.306452,-158.254700,126.305595,100.915024
675,854218038,123.525490,-48.797768,70.716621,-0.258801,6.752955,0.581424,-154.223480,112.793854,93.520355
676,854234705,120.068863,-50.946804,71.884727,-0.111546,7.484884,0.470422,-152.320389,105.317749,85.810303
677,854251372,116.817940,-52.930370,73.191078,-0.251735,7.566896,0.084200,-131.867096,98.149445,81.635254
678,854268039,114.191612,-54.840202,74.389687,-0.299219,7.754104,-0.320200,-98.020958,86.559456,85.154694
679,854284706,112.019028,-56.629086,75.691719,-0.041723,7.078511,-0.024454,-64.343628,81.528465,81.424011
680,854301373,110.412460,-58.304688,77.008041,-0.736201,7.431762,0.391950,-28.362389,74.925453,78.294769
681,854318040,109.289627,-59.855816,78.259087,-1.442192,7.365247,0.717616,-1.536086,66.827377,74.364418
682,854334707,108.404381,-61.253983,79.417099,-1.749125,7.296307,0.555004,8.822094,58.368298,68.266663
683,854351374,107.444351,-62.292610,80.523270,-2.226002,6.921513,2.132716,2.303254,47.990101,49.523464
684,854368041,107.124741,-63.134064,81.074554,-3.359399,8.330673,1.557241,11.641414,28.425978,43.577797
685,854384708,107.218407,-63.657616,81.267754,-2.793365,7.407424,2.381124,17.399059,13.182627,28.339161
686,854401375,107.749565,-63.819744,81.089935,-3.266415,7.654772,2.398314,23.714621,-2.629867,10.536020
687,854418042,108.884415,-63.715202,80.640068,-3.546051,7.472655,3.082336,45.290379,-14.344133,-2.385509
688,854434709,110.562874,-63.430759,79.940536,-3.417376,7.606181,3.529746,64.523560,-24.390636,-9.956928
689,854451376,112.585411,-62.943527,79.060867,-3.422357,7.409621,3.350759,75.645927,-33.935474,-18.648439
690,854468043,114.956223,-62.246479,78.041710,-3.243021,7.688578,3.267926,89.350250,-43.664177,-27.160326
691,854484710,117.708176,-61.359039,76.842262,-3.028650,7.382687,2.994372,103.069969,-55.147423,-32.884586
692,854501377,120.837524,-60.289303,75.532928,-2.010105,6.987803,3.265945,120.537621,-65.849739,-37.524700
693,854518044,124.065018,-59.006516,74.230194,-1.301584,6.828331,3.400923,127.561462,-75.697632,-44.032654
694,854534711,127.237602,-57.470181,73.064209,-0.655020,6.915288,3.567392,132.217896,-84.736023,-53.726490
695,854551378,130.208298,-55.602665,72.083733,0.388697,6.745036,3.402132,130.503769,-96.498665,-67.426231
696,854568045,132.979324,-53.251873,71.310921,0.633121,7.179284,2.176277,129.871414,-114.925423,-87.884567
697,854584712,135.490494,-50.286392,70.875298,0.971562,6.746957,-0.674761,131.450882,-136.852478,-116.515938
698,854601379,137.671799,-46.580841,70.973755,-0.258149,6.580102,-4.564780,136.592117,-159.963455,-155.983093
699,854618046,139.534454,-41.988297,71.582253,-0.264632,4.002929,-7.842252,138.525940,-190.604370,-202.146103
700,854634713,141.124191,-36.524338,72.827042,-1.114055,1.124599,-9.207941,143.913513,-216.615997,-254.122986
701,854651380,142.696808,-30.371328,74.686844,-1.202171,-3.881723,-7.833100,157.129364,-234.289780,-301.362061
702,854668047,144.861465,-23.780533,77.313271,-2.475831,-9.434267,-5.581666,202.809113,-237.263397,-347.188141
703,854684714,148.348480,-16.739693,80.375267,-0.519061,-16.867950,-5.597429,273.908844,-258.959686,-376.784058
704,854701381,152.482681,-9.778216,83.906754,4.692871,-23.409853,0.057290,297.640137,-262.500610,-385.907532
705,854718048,158.212540,-4.115739,87.797333,4.986440,-22.352743,10.125277,372.990967,-213.209137,-352.653046
706,854734715,167.485687,-0.916195,91.106506,8.082032,-13.878275,11.123934,566.182190,-126.105293,-246.551559
707,854751382,177.526398,-0.348814,93.161148,7.748469,-6.074713,-3.450427,605.130249,-18.743587,-126.917320
708,854768049,-176.340836,-1.607919,94.193550,-0.010922,-4.418700,-9.197808,370.420929,73.903015,-62.813904
709,854784716,-175.688278,-2.907732,94.583763,-4.359064,-3.350960,-6.411561,41.499710,75.154922,-28.836021
710,854801383,179.865265,-3.545819,94.260765,-0.900569,-3.177302,-2.845850,-266.459229,37.963451,17.868000
711,854818050,173.097458,-4.011143,93.027985,3.428103,-4.385613,0.551804,-409.506653,22.347876,75.342125
712,854834717,166.824814,-4.982496,91.086838,2.054667,-7.024886,1.923236,-384.019562,36.174316,124.484367
713,854851384,162.578934,-6.511573,88.485214,0.475199,-8.143909,1.010603,-268.894623,46.544029,173.992416
714,854868051,161.048981,-8.262680,85.398247,-1.547229,-8.862285,0.084887,-114.152908,41.519936,207.251801
715,854884718,161.483093,-10.164077,82.235390,-0.104188,-7.927965,-1.085550,-2.918497,46.924335,213.988815
716,854901385,162.341446,-12.023028,79.234825,1.496137,-6.624453,-1.272431,18.275703,50.244732,202.538513
717,854918052,162.924637,-13.879787,76.502792,1.096751,-5.539451,-0.330849,-0.308892,57.733650,185.695862
718,854934719,163.204346,-15.510453,73.847794,1.232952,-5.273073,-0.339869,-22.170914,47.819530,175.888901
719,854951386,162.937546,-17.124025,71.453529,0.343405,-4.108671,-2.006609,-54.891678,51.594833,160.080627
720,854968053,162.136337,-18.721514,69.288185,0.274345,-3.793015,-2.334003,-86.561676,53.467457,146.686096
721,854984720,160.980392,-20.244295,67.355537,0.128003,-2.391890,-2.099113,-106.526367,51.231495,132.624741
722,855001387,159.369522,-21.702784,65.711235,0.783481,-1.590137,-1.757306,-130.452744,50.221386,116.366905
723,855018054,157.299484,-23.121613,64.412598,0.909550,-0.204800,-1.431644,-152.385040,51.662788,98.411339
724,855034721,154.770523,-24.626225,63.515041,1.644544,0.496223,-1.084658,-172.007904,61.624008,81.719124
725,855051388,151.539764,-26.335892,63.076771,1.652797,0.801324,-0.387417,-203.622986,79.929604,67.567535
726,855068055,147.889023,-28.207401,63.094112,1.080572,1.505795,-1.663353,-217.023697,96.547272,55.900291
727,855084722,144.293350,-30.224482,63.472996,0.487980,2.035105,-2.194546,-203.101120,110.603806,51.129723
728,855101389,141.230606,-32.232857,64.001671,1.743992,1.706603,-1.696459,-165.781372,111.424850,51.399979
729,855118056,138.383179,-34.232281,64.755630,2.189416,1.971157,-0.242007,-144.521683,115.114258,48.595318
730,855134723,135.550140,-36.234135,65.734421,1.298674,3.112653,1.126681,-134.563110,119.573158,46.975388
731,855151390,133.142441,-38.212540,66.782776,0.805177,4.342457,1.874869,-104.891670,117.805122,49.954510
732,855168057,131.331451,-39.996059,67.826904,0.868069,5.948704,1.515743,-67.630051,106.927567,46.607552
733,855184724,130.079575,-41.584099,68.747482,0.561367,7.301123,2.921247,-37.530426,92.822266,45.005241
734,855201391,129.311340,-42.928825,69.490234,-0.109039,9.180993,3.677923,-14.640548,75.877441,41.040997
735,855218058,128.393631,-44.073368,70.102539,-0.675190,9.907285,4.408061,-28.294928,62.782917,36.758728
736,855234725,126.741623,-44.990971,70.666405,-1.414335,10.482747,4.619337,-73.920090,51.620575,28.897690
737,855251392,124.529854,-45.789581,71.162010,-2.356812,10.947005,4.196662,-110.076836,43.811611,26.705986
738,855268059,122.532867,-46.526127,71.458122,-2.313016,10.679822,3.843242,-105.558029,33.579094,29.927696
739,855284726,121.286278,-47.174145,71.436974,-2.012419,10.285109,2.827002,-74.288147,18.716433,33.312370
740,855301393,121.095909,-47.735458,71.144730,-2.023418,10.009726,2.416533,-22.922985,6.194528,34.759743
741,855318060,121.790619,-48.101711,70.686539,-2.160404,10.127975,1.823054,22.688202,-5.366462,28.129646
742,855334727,123.007118,-48.220715,70.152573,-2.479643,9.967093,1.961555,50.514187,-15.340455,17.214846
743,855351394,124.767311,-48.091286,69.436737,-2.664906,10.136005,2.649889,74.991943,-29.248024,9.230729
744,855368061,126.974640,-47.706314,68.407471,-2.238602,10.139966,3.444778,87.977448,-48.231621,5.211928
745,855384728,129.059387,-46.912266,67.321579,-2.063476,11.193357,4.006794,78.537628,-65.307678,-10.693264
746,855401395,131.675934,-45.561169,66.016930,-1.473143,11.926383,2.380915,101.769943,-94.940399,-27.093468
747,855418062,134.268143,-43.489120,65.003235,-0.800800,10.669122,0.920397,114.161499,-117.686729,-61.840588
748,855434729,136.789368,-40.537685,64.529030,-1.400718,9.683449,-0.812507,133.475952,-142.433105,-109.433678
749,855451396,139.200699,-36.815174,64.752617,-2.045751,7.153786,-2.480495,154.269760,-160.258102,-157.727936
750,855468063,141.157013,-32.306168,65.903862,-2.043952,2.880568,-3.643614,157.750519,-172.674301,-217.433975
751,855484730,142.489670,-27.121557,67.975098,-1.790641,-2.136133,-3.129569,142.762161,-179.126312,-277.604370
752,855501397,144.033371,-21.539404,70.920425,-2.297237,-7.764308,-1.241708,166.607727,-173.370193,-329.819611
753,855518064,146.421799,-15.714402,74.668999,-3.028916,-13.061146,-1.321247,216.271286,-166.761063,-374.822968
754,855534731,149.242691,-9.754306,79.177330,-1.754721,-19.751200,-2.302059,229.958832,-163.383514,-414.106689
755,855551398,152.798645,-4.170866,84.405891,0.572789,-24.958662,1.514328,252.403229,-143.232483,-435.056458
756,855568065,157.536819,-0.270622,90.080444,4.127230,-23.867722,9.645206,298.485352,-70.529800,-407.296814
757,855584732,162.227402,0.850227,95.518906,8.923210,-15.334580,0.461737,280.928528,48.034096,-329.738739
758,855601399,163.632538,0.361067,100.124214,5.800638,-8.060010,-6.809050,82.739868,108.091469,-255.622925
759,855618066,163.696014,-0.147958,102.477417,-1.614126,-0.440554,-2.468962,4.961908,67.993851,-126.981728
760,855634733,164.286285,-0.535964,102.391930,-5.153065,0.713423,-2.508483,36.793839,19.939331,11.273741
761,855651400,163.766556,-0.788384,100.697403,0.008867,-0.938440,-6.871334,-30.964756,-14.451169,101.828941
762,855668067,161.845917,-1.283914,98.358185,2.400300,-3.008291,-4.698640,-116.367630,-14.112270,142.775818
763,855684734,159.522491,-2.469378,95.843536,1.308264,-5.749177,-2.560037,-142.916550,16.220377,165.768112
764,855701401,157.567337,-4.032555,93.159821,1.452289,-6.755094,-1.343354,-125.008499,27.479099,183.871429
765,855718068,156.247253,-5.687301,90.464142,1.634614,-6.521063,-0.217867,-91.479424,27.129000,187.140915
766,855734735,155.655075,-7.375155,87.880997,1.610885,-6.485524,-0.949512,-51.737038,28.765867,181.837509
767,855751402,155.813019,-9.083508,85.349518,1.761659,-6.943214,-1.800303,-10.842021,30.717577,179.136185
768,855768069,156.308060,-10.739343,82.796753,1.115825,-6.873483,-2.060396,4.764708,28.651817,178.191895
769,855784736,156.989471,-12.362731,80.258224,1.446707,-6.141647,-2.011683,11.820761,29.367668,175.594223
770,855801403,157.596237,-13.982759,77.806580,2.273930,-5.874532,-1.565483,4.331341,33.479633,169.649734
771,855818070,157.715744,-15.584441,75.583878,2.741222,-5.857306,-1.988813,-25.385035,38.982758,155.796951
772,855834737,157.176788,-17.234640,73.636124,1.773045,-5.474461,-2.178843,-63.856464,47.568558,141.524063
773,855851404,156.135864,-19.057819,72.005371,1.408944,-4.183464,-2.531793,-91.416725,62.726219,128.744797
774,855868071,154.671814,-21.033955,70.769180,2.347750,-3.321998,-1.652628,-111.743385,77.943726,112.750900
775,855884738,152.704010,-23.118042,70.039108,2.386199,-2.686504,-2.160369,-132.997192,93.229225,91.872421
776,855901405,150.108032,-25.273787,69.811302,2.367643,-2.436559,-2.081975,-159.814835,106.728775,72.926117
777,855918072,146.583740,-27.480961,70.020058,2.393584,-1.573167,-1.258299,-204.333633,117.741196,60.032623
778,855934739,142.131424,-29.597273,70.598312,1.672449,0.492638,1.326392,-248.992889,120.070778,49.317940
779,855951406,136.955246,-31.611933,71.582954,0.116690,2.586189,1.900680,-278.928375,124.066101,39.854034
780,855968073,131.038101,-33.339516,72.928818,0.000896,4.567028,0.338119,-310.110382,120.086571,27.344469
781,855984740,124.485199,-34.685169,74.361305,1.586035,4.475752,1.063685,-343.557770,104.816040,20.292078
782,856001407,117.299446,-35.729313,75.958679,0.606759,6.692052,2.397790,-374.348389,98.401688,13.623509
783,856018074,110.270065,-36.675243,77.454773,-1.058726,7.658332,3.054088,-367.229065,88.164108,22.778126
784,856034741,104.296509,-37.642593,78.849258,-1.269887,8.105521,3.029340,-306.367706,79.885910,35.631554
785,856051408,99.373436,-38.590958,80.208992,-2.222125,8.445271,3.412803,-243.534775,73.444656,42.516762
786,856068075,95.803802,-39.492764,81.380318,-2.158792,8.658053,3.801214,-168.448227,60.180714,46.381493
787,856084742,93.391518,-40.362400,82.453743,-2.791224,7.724462,4.632981,-101.947975,52.348984,47.973099
788,856101409,91.976578,-41.202930,83.425171,-3.743915,7.939026,4.849519,-45.378956,45.391441,48.204342
789,856118076,91.489777,-42.042480,84.178589,-4.129542,7.819946,4.735860,2.248100,34.251534,49.198627
790,856134743,91.834778,-42.864105,84.577431,-3.818033,7.206079,4.122288,38.271473,18.038630,48.614464
791,856151410,92.538956,-43.601200,84.650780,-3.724523,6.861499,3.798365,46.679611,3.862484,43.900349
792,856168077,93.425087,-44.269505,84.471169,-3.021070,6.149354,4.148311,47.094131,-6.691639,40.259323
793,856184744,94.419403,-44.866222,84.003868,-2.723689,6.147120,3.893744,41.382317,-18.500532,36.882023
794,856201411,95.552513,-45.421886,83.431259,-1.773604,6.217796,3.864752,45.020679,-22.264053,35.102467
795,856218078,97.725029,-45.968876,82.432915,-1.228912,7.324951,3.119440,88.867561,-38.786118,37.206055
796,856234745,101.317665,-46.490215,80.789780,-0.680860,8.095378,3.518681,145.739594,-63.114323,41.884018
797,856251412,105.710472,-46.990322,79.162178,0.106036,9.180382,2.613203,193.825180,-59.096977,44.551872
798,856268079,110.712013,-47.180431,77.154999,0.086587,10.741201,2.763554,213.244812,-75.396812,36.188107
799,856284746,115.722176,-47.003838,75.218178,0.343218,11.718850,1.547006,216.850937,-77.965408,21.154108
800,856301413,120.135818,-46.188381,73.643684,0.259000,11.454407,-0.917299,197.534470,-81.372231,-13.143793
801,856318080,123.520943,-44.723274,72.840324,-0.532677,10.620823,-2.150627,170.091629,-76.219261,-57.191330
802,856334747,126.057983,-42.678333,72.616615,-0.483515,8.983963,-2.352195,144.280090,-79.123711,-95.577591
803,856351414,127.386360,-40.022530,73.228371,0.840966,6.473260,-2.407471,105.288452,-74.354568,-144.559189
804,856368081,127.412575,-36.682495,74.674500,0.948693,3.950516,-3.849990,56.766029,-68.830185,-200.874771
805,856384748,127.054756,-32.644089,76.687225,-0.133867,0.100260,-4.823186,48.602196,-68.676613,-253.355591
806,856401415,126.787987,-27.886496,79.250282,-0.477783,-4.637379,-5.585954,62.898571,-66.426361,-308.308014
807,856418082,126.155960,-22.474752,82.355408,-0.878636,-10.617423,-5.068870,42.794640,-58.512550,-361.607666
808,856434749,126.074226,-16.749582,86.012833,-1.555081,-16.469782,-3.768813,70.176903,-36.515663,-399.555481
809,856451416,127.324615,-11.029597,90.187805,-1.862878,-21.781063,-2.111589,136.484512,-11.099007,-420.674805
810,856468083,130.472153,-5.958875,94.925285,-1.841564,-23.907944,-0.793836,232.020355,26.830736,-413.479523
811,856484750,134.830688,-2.223110,99.871353,4.084506,-18.762403,-2.162049,283.816925,64.930473,-365.559570
812,856501417,138.524734,0.359132,103.993774,5.946190,-9.160414,-2.773284,226.918976,56.025425,-286.331573
813,856518084,142.005707,1.549375,105.976562,1.696264,1.964405,1.613913,208.241714,20.116650,-137.193283
814,856534751,145.564880,1.733830,105.533760,-4.703579,0.169143,-5.055398,215.710938,-25.635246,14.827818
815,856551418,147.795975,1.815243,103.649033,1.282975,-1.420216,-5.549173,138.745529,-67.191612,91.709015
816,856568085,147.765564,1.689439,101.942207,6.763896,-1.483402,-0.574183,2.706089,-49.207455,90.569359
817,856584752,146.207169,1.374088,100.978539,3.553325,-3.181629,1.506704,-90.538788,-16.633650,58.720081
818,856601419,144.747513,1.108025,100.706421,-0.714967,-1.865649,2.782611,-85.799980,2.904183,22.443068
819,856618086,144.189606,0.925702,100.575958,-2.604704,-1.083449,3.463576,-31.915220,3.355399,12.679306
820,856634753,144.748672,0.950931,100.115974,-2.073030,-1.050927,2.432507,35.406849,-18.266928,21.528133
821,856651420,145.896484,0.727054,99.343369,-0.875680,0.009871,2.002563,70.951019,-16.320990,45.706516
822,856668087,146.957443,-0.183592,98.200195,0.560072,-0.181632,0.129112,65.383194,6.591443,87.310593
823,856684754,147.361008,-1.517355,96.722168,1.539255,-2.043881,-0.915003,24.303013,18.141237,117.845680
824,856701421,146.884308,-2.939209,94.970390,0.863715,-3.460503,-1.048740,-31.271708,13.633380,134.459686
825,856718088,146.052048,-4.388864,93.023567,-0.581815,-4.117299,-1.073741,-55.977448,7.113364,145.167480
826,856734755,145.150925,-6.023235,90.943375,0.173025,-5.040828,-0.680588,-63.967319,9.701121,157.914078
827,856751422,144.399460,-7.881543,88.734612,0.597700,-5.803986,0.157975,-59.703007,14.216761,171.737305
828,856768089,143.858383,-9.904057,86.464081,0.911914,-6.350074,0.154140,-52.094978,18.487942,180.139206
829,856784756,143.558228,-12.019193,84.204384,0.980267,-6.334172,0.184611,-42.363476,22.531736,182.380463
830,856801423,143.411530,-14.160695,81.985046,1.292460,-5.954805,-0.004175,-37.526314,25.128574,180.679642
831,856818090,143.221497,-16.244740,79.808189,0.600654,-5.549644,-0.939155,-44.212078,24.028612,175.769135
832,856834757,143.044586,-18.235836,77.674873,0.093842,-5.093145,-1.789426,-47.106968,21.277843,169.486313
833,856851424,143.003586,-20.098829,75.588257,-0.152313,-4.577066,-2.044635,-42.114376,17.228632,161.713882
834,856868091,143.371460,-21.819555,73.572403,0.050944,-4.321812,-1.826374,-19.745153,14.036263,152.307831
835,856884758,143.830200,-23.441811,71.681183,1.131437,-4.469778,-1.395641,-14.680423,15.265425,142.076492
836,856901425,144.243118,-25.040356,69.957169,0.873233,-4.100338,-1.878423,-16.237553,21.304668,132.700211
837,856918092,144.583054,-26.546494,68.532745,0.486673,-2.322685,-1.799789,-15.322877,27.779005,115.203041
838,856934759,144.714615,-27.881369,67.343147,1.811675,-2.226189,-1.803959,-23.270264,27.672148,98.142776
839,856951426,144.376190,-29.025450,66.477432,2.488131,-1.293773,-2.324687,-43.571209,28.492622,77.057587
840,856968093,143.786514,-30.112570,65.971756,2.081959,-0.737283,-2.187608,-48.863304,36.404438,59.676067
841,856984760,142.837234,-31.137497,65.908646,1.965473,0.334737,-1.505377,-57.398075,46.418110,39.396870
842,857001427,141.313568,-32.212067,66.323265,2.284624,0.295522,-0.220948,-76.862343,62.916466,22.966002
843,857018094,139.186462,-33.413425,67.329330,1.895538,1.677277,0.803336,-93.418701,86.892624,7.126984
844,857034761,136.773071,-34.619141,68.918480,0.975313,3.543935,0.255093,-89.964226,105.665497,-10.254500
845,857051428,134.105148,-35.832279,71.061707,1.332751,3.981814,0.555102,-84.402939,124.573952,-23.750830
846,857068095,130.778915,-37.011292,73.826683,2.286992,4.290071,1.610662,-99.567474,145.239426,-37.872272
847,857084762,126.736389,-38.095188,77.202072,0.394775,6.361857,2.296867,-117.590080,164.888382,-49.801636
848,857101429,122.512436,-39.113251,80.825851,-0.737587,7.105628,3.281101,-116.253128,173.484741,-46.296005
849,857118096,118.244698,-40.045521,84.530602,-1.780786,8.491241,3.453703,-112.917519,175.037262,-38.419334
850,857134763,113.978531,-40.953979,88.131912,-2.156972,8.981290,3.921928,-114.135384,170.467392,-23.426373
851,857151430,109.828026,-41.859032,91.569244,-3.021753,10.482890,3.707948,-111.132278,162.713776,-7.400267
852,857168097,106.224144,-42.836876,94.604774,-3.430927,11.473481,2.629582,-92.068062,145.088074,14.032331
853,857184764,103.741440,-43.954105,97.020058,-3.150888,11.168025,1.901548,-47.947086,117.977028,37.399876
854,857201431,102.079872,-45.120289,98.842506,-2.696948,10.362741,2.337962,-21.554874,90.535187,50.632790
855,857218098,100.808487,-46.282673,100.165665,-3.269195,9.575644,3.375278,-18.021097,67.106529,57.180145
856,857234765,100.023766,-47.585690,101.011063,-3.680887,8.820655,2.529571,-8.587454,47.123611,70.435310
857,857251432,99.455933,-48.814808,101.452377,-2.889278,7.520753,2.131136,-12.888907,28.797594,69.482864
858,857268099,98.933945,-49.847439,101.477188,-2.603947,6.893424,1.319796,-28.754154,9.783498,60.777824
859,857284766,98.658112,-50.623241,101.153481,-2.055625,6.079404,1.451489,-30.047249,-6.234803,47.658733
860,857301433,98.706718,-51.103088,100.483917,-1.785538,5.624630,1.362098,-26.813131,-21.794630,32.036736
861,857318100,99.082863,-51.320019,99.509804,-1.329248,4.942968,1.776875,-21.560616,-35.232750,18.259661
862,857334767,99.666061,-51.315029,98.336853,-0.835660,4.274939,2.341444,-18.521105,-44.519245,6.601542
863,857351434,100.676529,-51.221897,96.963257,-1.079896,4.489974,2.996928,-2.241492,-52.814079,3.336811
864,857368101,102.273170,-50.983944,95.301117,-1.678309,6.255133,4.974051,19.599100,-65.282249,-1.809426
865,857384768,104.709801,-50.947952,93.429993,-1.776272,8.296091,10.204863,60.399937,-70.332817,14.110312
866,857401435,107.766640,-51.006691,91.483231,2.413028,10.164297,9.559116,94.065338,-70.707870,23.651735
867,857418102,109.569237,-50.619888,90.229286,1.739451,11.843632,5.065844,51.254124,-53.567112,-7.082587
868,857434769,109.923637,-49.367443,89.403030,-0.295236,13.512222,2.036163,-15.296502,-56.502472,-60.284649
869,857451436,109.169930,-46.827610,88.882294,-1.504013,13.151769,-0.565625,-67.056473,-71.774414,-136.974976
870,857468103,108.942078,-43.090809,88.486412,0.795678,6.305280,-0.526652,-29.042532,-90.219032,-206.802307
871,857484770,109.516891,-38.446453,88.746666,-1.022077,-3.261602,0.018312,46.080048,-81.742561,-267.383911
872,857501437,111.235092,-32.944157,90.066513,-3.764318,-10.284662,-3.037805,150.639511,-55.772404,-332.240051
873,857518104,114.658333,-26.770447,92.114151,-1.113972,-17.584528,-7.684247,267.773254,-47.380379,-383.037537
874,857534771,119.570259,-20.209167,94.753860,2.495151,-24.687504,-8.629682,358.913483,-51.180641,-417.025452
875,857551438,125.168533,-13.995871,97.838783,2.184435,-29.004404,-4.815715,391.359802,-51.165779,-409.962982
876,857568105,131.060608,-9.303274,101.249413,4.725011,-23.877453,-0.167078,395.957825,-17.075104,-345.510895
877,857584772,135.610077,-6.618929,104.625946,6.584652,-11.419806,-3.356587,302.299133,34.445904,-254.987656
878,857601439,138.777237,-5.699939,106.731522,3.185740,-1.692070,-2.093006,204.962402,43.901249,-129.689514
879,857618106,142.027481,-6.139100,106.761955,-3.049931,0.970656,-3.091146,196.609802,20.460920,15.343114
880,857634773,144.666840,-7.102607,105.228096,-2.377340,-0.339980,-6.405867,149.140915,-9.203860,107.797729
881,857651440,145.552612,-8.302910,103.168617,1.460034,-1.147626,-5.199379,37.978119,-11.987604,141.572357
882,857668107,144.876144,-9.784996,101.273621,0.863299,-3.434309,-2.539633,-57.050812,7.953582,142.896210
883,857684774,143.526306,-11.498899,99.483322,0.868645,-4.315614,0.035056,-99.403755,20.648479,145.718536
884,857701441,142.234009,-13.302469,97.728546,0.544667,-4.768501,0.022281,-98.726036,23.229050,147.251907
885,857718108,141.162415,-15.174311,96.068665,-0.158556,-4.599337,-0.911505,-87.371391,27.310865,145.325531
886,857734775,141.042847,-16.683304,94.003632,-1.429046,-5.442287,-2.335482,-39.764843,-5.329287,149.529984
887,857751442,141.358154,-17.861246,91.848076,0.444947,-5.271319,-2.549142,-18.079626,-23.282173,140.502975
888,857768109,141.670944,-19.292931,89.708961,1.157532,-5.403179,-2.701006,-20.714024,-9.439314,148.658875
889,857784776,142.035049,-20.821220,87.451973,2.746817,-6.438406,-2.438599,-23.185183,-7.422283,156.654205
890,857801443,142.060699,-22.709995,85.165230,2.834480,-6.795700,-3.670289,-47.917004,10.029922,170.165878
891,857818110,141.722427,-24.868286,82.849678,1.214719,-6.281756,-4.763383,-74.900681,22.477112,179.954010
892,857834777,141.515488,-27.149918,80.448456,1.553336,-6.343872,-4.137617,-74.152649,25.963737,186.513077
893,857851444,141.237228,-29.563982,78.109985,2.566180,-5.669646,-3.218944,-81.884697,35.139919,186.897766
894,857868111,140.669205,-32.062401,75.961662,2.173090,-4.964456,-2.733746,-98.642944,45.731007,180.451248
895,857884778,139.713181,-34.610226,74.138397,1.352529,-3.227106,-2.123973,-116.000313,57.969501,168.132278
896,857901445,138.523422,-37.111984,72.670639,1.143640,-2.388078,-2.118301,-121.487114,65.831619,152.265060
897,857918112,136.940552,-39.499874,71.661331,0.738719,-1.201754,-2.325274,-131.019531,73.108162,131.603729
898,857934779,134.714157,-41.736385,71.073494,1.001756,-0.152608,-1.388040,-155.051804,76.636917,112.784531
899,857951446,131.658356,-43.931133,71.103645,0.954286,0.094473,-0.194177,-180.618896,90.124924,95.187080
900,857968113,127.730415,-46.034973,71.824890,0.341479,1.573673,-0.241288,-203.581680,103.203690,77.655792
901,857984780,123.543510,-48.027081,73.037201,-1.428396,3.129844,-0.651228,-196.481628,108.952347,68.318657
902,858001447,119.743118,-49.897736,74.718025,-1.478597,4.000083,-1.621640,-150.469910,114.244370,60.866077
903,858018114,116.391777,-51.659851,76.726212,0.649992,3.158510,-0.689242,-106.254890,115.957870,57.474342
904,858034781,112.591713,-53.225750,79.122086,1.320764,2.320555,1.470862,-112.565498,117.659203,49.188545
905,858051448,108.431480,-54.671612,81.924820,-0.349425,3.564961,3.218640,-112.179550,122.048431,46.578541
906,858068115,104.178879,-56.020058,85.077469,-1.312100,4.311672,3.954006,-98.080673,124.896652,47.441998
907,858084782,99.725220,-57.184284,88.562546,-1.040594,4.675552,3.345797,-91.173492,126.019905,44.472584
908,858101449,95.576447,-58.146393,92.092148,-0.577568,4.722638,3.697332,-68.534286,118.890274,42.091988
909,858118116,91.933586,-58.995022,95.367111,-0.035996,4.634636,4.565260,-49.457829,104.522179,44.047134
910,858134783,88.781174,-59.750572,98.256447,-0.774244,5.510012,5.294359,-38.528736,87.544197,44.721531
911,858151450,86.187813,-60.453716,100.696541,-1.218280,5.971690,5.516272,-27.246698,70.003166,45.280495
912,858168117,84.255913,-61.116989,102.711281,-1.265454,6.379838,4.764990,-8.976297,54.433086,44.488617
913,858184784,83.629257,-61.741074,104.102913,-0.945787,7.055787,3.892723,37.158875,34.710209,41.352951
914,858201451,84.956726,-62.427090,104.717087,0.344686,6.943830,4.505872,113.635025,12.024364,42.562664
915,858218118,87.568665,-62.961700,104.385521,-0.065199,8.714361,3.464039,140.463577,-12.256053,31.289179
916,858234785,91.263206,-63.297283,103.001076,-1.755431,10.369469,3.015457,149.003159,-38.811596,19.605427
917,858251452,95.494263,-63.503063,100.766701,-3.013767,10.608438,2.090680,135.412918,-60.263355,15.696585
918,858268119,99.812119,-63.413548,97.891823,-3.791145,10.711049,1.836414,106.173767,-78.176224,4.752311
919,858284786,104.259773,-63.004494,94.729530,-3.530175,10.559124,1.530013,98.897804,-89.832672,-6.377568
920,858301453,108.644707,-62.157967,91.465012,-2.845126,10.739606,1.242560,90.624855,-101.961449,-23.388927
921,858318120,112.588783,-60.897053,88.361420,-2.494992,11.467626,3.066493,74.338493,-110.807076,-39.784412
922,858334787,116.133476,-59.254425,85.493362,-2.002543,13.286609,3.538967,64.910477,-119.942398,-54.625603
923,858351454,119.469200,-57.145191,82.904778,-1.362276,13.599277,1.613069,69.501160,-132.525146,-74.049767
924,858368121,121.654236,-54.223606,81.132782,-2.046194,13.843978,-1.216576,44.636818,-141.865875,-120.772469
925,858384788,122.990509,-50.293190,80.165695,-2.407540,12.313744,-3.395181,35.630280,-157.251862,-180.628815
926,858401455,123.496460,-45.308819,80.122932,-1.102426,7.516790,-5.159798,29.806120,-166.543732,-249.536102
927,858418122,123.425987,-39.429432,80.921486,-0.439137,0.711450,-5.046617,29.447708,-166.116714,-314.183563
928,858434789,123.963196,-32.938538,82.521317,-0.376870,-8.061944,-4.382245,90.263268,-152.722870,-367.368469
929,858451456,125.534546,-25.904615,84.874184,-1.749941,-13.291845,-6.361000,164.904144,-140.613297,-417.189728
930,858468123,127.421822,-18.247883,87.768127,1.633153,-20.183548,-5.270612,179.731415,-144.758026,-465.374176
931,858484790,129.621140,-10.871012,91.486176,-0.213644,-27.957083,-0.647220,189.235382,-107.676178,-481.003021
932,858501457,133.176834,-4.570225,95.998779,1.336876,-27.833452,3.550768,250.796738,-49.621204,-461.205688
933,858518124,136.867050,0.052476,100.713402,4.633940,-19.369661,0.511628,233.700439,2.703726,-396.112885
934,858534791,139.699677,3.210294,104.703094,3.023324,-9.090210,-3.342191,164.409058,16.878923,-304.775818
935,858551458,142.711594,4.865297,106.613503,0.900280,2.346828,0.998290,173.991928,-6.753774,-151.390594
936,858568125,146.104568,5.201020,106.444336,-2.781097,1.786410,-3.937211,205.851852,-23.273603,-3.561319
937,858584792,147.775711,5.132669,105.197342,2.160033,0.354439,-5.971650,108.382767,-38.228458,64.628609
938,858601459,147.111191,4.786856,103.932121,4.273997,0.527155,-2.319153,-31.913694,-24.223196,74.848366
939,858618126,145.196228,4.187273,102.829140,1.633516,-1.015662,1.520627,-108.310837,-7.880012,74.773506
940,858634793,143.393997,3.570839,101.925262,0.402952,-2.386326,2.952792,-103.050385,-2.553452,65.467323
941,858651460,142.450119,3.028237,101.175171,0.270892,-2.045363,1.736248,-52.633263,-2.119392,55.421043
942,858668127,142.164124,2.528882,100.720062,-0.746344,-1.217707,-0.005602,-14.427931,6.027750,39.852802
943,858684794,142.725418,2.359712,100.137703,-1.740399,-1.760722,-0.225930,36.573181,-14.231241,33.813877
944,858701461,143.634369,2.764396,99.646912,0.374854,-1.373679,0.259005,57.250927,-38.068027,8.953870
945,858718128,144.333954,2.629230,99.138580,-0.553322,-0.641711,-1.034146,44.809723,-12.348386,29.363434
946,858734795,144.910477,2.371142,98.416039,0.803225,-1.144269,-0.546681,37.881641,-13.444492,44.232708
947,858751462,145.078873,1.992544,97.504089,0.465274,-1.845971,-0.548297,13.589476,-13.749001,57.766258
948,858768129,144.954544,1.278335,96.377159,0.319992,-2.935812,-1.334089,-4.127400,-4.630253,79.901665
949,858784796,144.629807,0.414932,94.935509,0.553097,-3.734218,-1.550526,-16.799078,-8.524002,100.495003
950,858801463,144.162445,-0.514798,93.209137,0.146962,-3.677176,-0.905518,-26.722694,-15.926731,116.659294
951,858818130,143.822800,-1.474013,91.265167,1.070385,-4.045241,-0.533365,-20.991428,-22.974306,128.141556
952,858834797,143.634186,-2.416110,89.215454,1.578359,-4.668869,-0.605256,-14.075943,-28.108124,132.508438
953,858851464,143.631470,-3.325681,87.140701,1.946561,-5.100286,-1.154386,-4.976962,-30.730036,132.454010
954,858868131,143.788223,-4.135398,85.053238,1.578113,-5.162661,-1.996639,2.683684,-35.760651,129.486633
955,858884798,144.100342,-4.809174,82.980156,1.212712,-4.929854,-2.492326,10.463992,-41.232826,124.036758
956,858901465,144.445251,-5.354114,80.996544,1.190181,-4.581647,-2.640281,11.596258,-43.608250,115.342979
957,858918132,144.604141,-5.778795,79.225525,0.757802,-3.556986,-2.994960,0.678669,-41.542397,100.927826
958,858934799,144.505737,-6.023204,77.673790,0.800429,-2.875568,-3.291657,-14.013680,-42.673222,83.971329
959,858951466,144.311844,-6.054914,76.386269,0.352279,-2.154962,-4.379892,-18.293100,-44.069336,63.598591
960,858968133,144.092316,-5.775413,75.387733,0.511116,-1.902650,-4.963974,-17.873293,-49.364170,38.548973
961,858984800,143.565872,-5.200610,74.679115,1.276809,-2.128166,-4.966754,-34.174984,-53.725414,13.837911
962,859001467,142.621567,-4.341001,74.349739,1.183510,-1.515058,-5.100437,-56.817902,-53.972881,-15.194780
963,859018134,141.413956,-3.206178,74.360489,0.639975,-0.457990,-4.796789,-70.924850,-54.180531,-42.375233
964,859034801,140.185333,-1.757019,74.632111,-0.166270,0.809929,-3.851017,-71.520836,-57.999569,-67.537544
965,859051468,138.822784,0.017280,75.211311,0.019166,0.633850,-3.481351,-79.734650,-59.300961,-95.529701
966,859068135,137.328857,2.098486,76.185165,-0.238217,0.397401,-3.164477,-89.220978,-54.787361,-126.873619
967,859084802,135.757202,4.340311,77.513031,0.036820,0.669340,-1.331129,-97.281677,-43.847324,-150.225143
968,859101469,134.149445,6.729828,79.115410,0.394973,0.656642,-0.532083,-104.247437,-34.489864,-169.045807
969,859118136,132.516647,9.286035,80.898979,0.897411,0.677084,-0.105918,-111.387421,-29.084318,-184.256424
970,859134803,130.960571,12.007036,82.873207,0.749564,0.999425,0.204215,-113.761574,-22.728806,-199.302826
971,859151470,129.556061,14.903069,85.027802,0.056724,1.384123,0.992282,-112.864738,-17.263588,-213.821365
972,859168137,128.550385,17.805859,87.169136,0.511039,1.348436,3.994914,-95.046219,-14.921795,-212.891510
973,859184804,128.015594,20.641945,89.232353,0.501311,1.876504,4.497583,-71.391693,-14.596982,-205.964844
974,859201471,127.957916,23.384544,91.142494,0.296126,1.848129,4.309352,-44.978905,-18.468082,-195.071274
975,859218138,128.212753,26.057878,92.908073,0.304407,2.146044,4.565481,-27.579239,-24.139338,-185.593063
976,859234805,128.626755,28.694626,94.598351,0.206135,2.361885,4.547681,-20.362064,-28.703341,-179.902069
977,859251472,129.103134,31.314659,96.292107,-0.317832,2.432998,4.048235,-20.810827,-31.065510,-177.624451
978,859268139,129.554886,33.911201,98.035217,-0.744247,2.405318,3.625593,-27.833763,-31.552586,-176.343704
979,859284806,129.857620,36.495102,99.893959,-0.633251,2.046010,3.052701,-44.702858,-29.897398,-177.500977
980,859301473,130.020737,39.019176,101.950058,-0.613255,1.703648,2.746190,-64.333771,-23.402283,-178.749252
981,859318140,130.107346,41.465759,104.244072,-0.304140,1.669697,2.560305,-82.302956,-15.046565,-179.986511
982,859334807,130.204300,43.817078,106.809753,-0.246944,1.380839,2.140908,-97.051926,-5.395195,-180.873123
983,859351474,130.493439,46.022141,109.624084,-0.194461,0.972000,1.918940,-100.465515,4.491818,-178.259613
984,859368141,130.954041,48.067780,112.670418,0.112215,1.069864,1.986110,-104.727295,13.341156,-174.295227
985,859384808,131.270370,49.987812,115.774765,0.345617,1.452675,2.070496,-120.236427,15.284236,-167.120346
986,859401475,131.373917,51.769089,118.722008,0.098179,1.166973,1.970978,-129.552673,12.238444,-153.966583
987,859418142,131.389633,53.437084,121.519600,0.401982,1.599176,2.025416,-130.987244,9.339710,-142.521255
988,859434809,131.140091,54.965431,124.017303,0.280642,1.512491,1.959189,-135.100525,4.420589,-126.792740
989,859451476,130.743759,56.322746,126.139755,-0.334206,1.399912,1.656425,-127.484406,-0.079676,-108.666359
990,859468143,130.270630,57.351070,127.908241,-1.075846,0.979710,1.505833,-115.768295,3.044886,-84.668694
991,859484810,129.683029,58.112267,129.535873,-0.006347,1.506681,1.195883,-116.407120,9.602251,-68.566628
992,859501477,128.895966,58.780437,131.055496,0.539196,0.920074,0.722450,-123.485260,10.527766,-61.312958
993,859518144,128.035202,59.367683,132.274979,0.049494,0.375444,0.444445,-112.970924,6.509673,-51.051350
994,859534811,127.101486,59.853828,133.207794,-0.141636,0.875653,0.529032,-102.867516,3.645210,-40.457798
995,859551478,126.080345,60.260910,134.134064,-0.135958,1.320881,0.380650,-107.993790,6.703259,-36.225151
996,859568145,124.895271,60.653603,135.088928,0.122290,1.425994,0.113939,-119.512230,8.313410,-35.666172
997,859584812,123.613831,61.070503,135.987503,-0.217355,1.361725,-0.275308,-122.538322,6.607080,-35.539143
998,859601479,122.359627,61.553829,136.715652,-0.946480,1.432617,-0.612350,-112.136063,0.794564,-35.833054
999,859618146,121.154442,62.117374,137.237579,-1.238560,1.757877,-0.535625,-98.478745,-6.239343,-36.626751
1000,859634813,120.091499,62.727230,137.646515,-1.368521,1.850378,-0.667538,-84.085358,-9.876439,-37.378582
1001,859651480,119.281349,63.358845,138.123154,-1.519207,2.172778,-0.471947,-72.658348,-8.518838,-39.453808
1002,859668147,118.571869,64.036819,138.599411,-1.965678,2.475182,-0.262732,-66.747795,-9.608485,-41.851994
1003,859684814,118.000778,64.622032,139.055710,-2.299095,2.193645,-0.171473,-57.499435,-7.211592,-36.674061
1004,859701481,117.603561,65.081352,139.519623,-1.605763,2.116527,-0.281947,-47.590942,-3.409588,-30.041140
1005,859718148,117.367416,65.442017,139.983704,-1.104977,2.122502,-0.104771,-38.018444,-0.670084,-24.734182
1006,859734815,117.139641,65.741165,140.263626,-0.992282,2.132336,0.068294,-27.521290,-3.069707,-19.304035
1007,859751482,116.896637,65.949242,140.167053,-1.029096,2.005771,0.110249,-7.847443,-8.803553,-10.220948
1008,859768149,116.757401,66.025032,139.570175,-1.113831,1.774958,0.189836,25.805025,-16.076706,2.333177
1009,859784816,116.811478,65.921257,138.611862,-1.249656,1.869792,0.294417,57.206814,-19.116671,15.911691
1010,859801483,116.871887,65.744713,137.300583,-1.299181,1.774064,0.297592,76.848312,-24.982008,23.788469
1011,859818150,116.879425,65.472740,135.716461,-1.020317,1.447719,0.296051,88.465637,-28.666800,32.084900
1012,859834817,116.903946,65.099983,133.922546,-0.472984,1.218292,0.268463,100.689964,-31.056065,40.074284
1013,859851484,116.971077,64.672531,131.933090,-0.067497,1.018310,0.167138,113.555038,-34.589886,45.586109
1014,859868151,117.072914,64.192581,129.753983,0.136480,0.911516,0.195955,125.501747,-38.233738,51.055126
1015,859884818,117.407364,63.664467,127.535629,0.098003,0.202738,0.084549,141.063614,-38.558239,54.709557
1016,859901485,117.836052,63.095970,125.202805,-0.005157,0.578292,0.150229,152.292343,-40.813999,59.062080
1017,859918152,118.107552,62.497372,122.793892,-0.009665,1.050867,0.254849,146.273804,-42.576813,62.471207