sep=,
DeviceTag:,DOT10
FirmwareVersion:,3.0.0
AppVersion:,2023.6.0
SyncStatus:,Synced
OutputRate:,60Hz
FilterProfile:,Dynamic
Measurement Mode:,Custom modes - custom mode1
StartTime: ,2026-06-02_18:01:06_663 GMT+2
© Movella Technologies B. V. 2005-2026

PacketCounter,SampleTimeFine,Euler_X,Euler_Y,Euler_Z,FreeAcc_X,FreeAcc_Y,FreeAcc_Z,Gyr_X,Gyr_Y,Gyr_Z
1,931877144,-67.165283,-41.391155,164.498444,-0.099007,0.003909,0.171075,4.720197,2.241118,-5.200147
2,931893811,-67.055946,-41.429935,164.377014,-0.253253,-0.166680,0.135709,3.165378,3.093009,-4.397740
3,931910478,-66.965004,-41.461193,164.258575,-0.242311,-0.202828,0.184953,2.178059,3.134207,-3.934687
4,931927145,-66.902893,-41.487087,164.150635,-0.095214,-0.141182,0.216722,0.863218,2.817903,-3.457318
5,931943812,-66.864799,-41.516529,164.039276,0.134330,0.031979,0.177783,-0.716042,2.871293,-3.717556
6,931960479,-66.823112,-41.557720,163.920746,0.283840,0.107798,0.177638,-0.789524,2.885034,-4.492045
7,931977146,-66.757240,-41.619602,163.829361,0.302034,0.038298,0.229886,1.739263,1.269961,-5.158245
8,931993813,-66.676079,-41.689373,163.755508,0.056428,0.029192,0.227262,3.350186,0.348992,-5.282389
9,932010480,-66.584335,-41.763077,163.639557,0.057856,0.058357,0.189171,2.299848,1.975834,-6.248168
10,932027147,-66.473320,-41.844692,163.479218,0.081622,-0.047177,0.139261,1.675205,3.590459,-7.478781
11,932043814,-66.374138,-41.930153,163.296463,0.125939,-0.157119,0.102085,0.055996,4.395493,-8.094524
12,932060481,-66.290276,-42.024178,163.109680,0.214408,-0.192029,0.084938,-1.036342,4.329847,-8.641792
13,932077148,-66.247025,-42.128819,162.962830,0.158262,-0.409693,0.068999,-1.885172,2.424166,-8.509873
14,932093815,-66.272194,-42.244282,162.880615,0.072851,-0.536427,0.130598,-3.397935,-0.478676,-7.945101
15,932110482,-66.326530,-42.383389,162.815613,0.128487,-0.468552,0.173772,-4.462246,-1.750641,-8.932893
16,932127149,-66.379234,-42.555401,162.753708,0.202949,-0.773738,0.253160,-4.243412,-2.668883,-10.684996
17,932143816,-66.453758,-42.754669,162.710632,0.174699,-0.976934,0.292220,-4.801065,-4.078966,-11.850363
18,932160483,-66.560440,-42.997696,162.630295,0.196779,-0.976379,0.255640,-8.256287,-3.615005,-14.913740
19,932177150,-66.669312,-43.286076,162.450043,0.375206,-0.729238,0.256742,-12.505089,-0.669325,-19.145870
20,932193817,-66.677002,-43.588089,162.018372,0.694732,0.128235,0.464793,-16.848757,9.048837,-24.220205
21,932210484,-66.367706,-43.890537,160.979233,1.320608,1.421836,0.955194,-23.129051,33.043308,-34.725189
22,932227151,-65.433800,-44.182789,159.000351,2.472432,2.701128,1.505292,-25.079529,69.716423,-50.998512
23,932243818,-63.539890,-44.452579,156.013168,3.618438,3.906641,1.639109,-10.173576,107.723335,-69.984322
24,932260485,-60.658939,-44.638954,152.366577,3.978198,4.720538,0.957470,20.775938,131.543182,-82.999786
25,932277152,-57.244255,-44.803406,148.870422,0.820561,3.738220,-0.225594,58.670635,121.592972,-85.493805
26,932293819,-54.216549,-44.980072,146.023483,-4.414685,3.775141,-0.190854,62.519768,93.036476,-77.074371
27,932310486,-51.996704,-45.410744,143.082687,-5.710950,6.402108,0.710022,9.426373,82.932854,-95.464569
28,932327153,-50.123814,-46.315506,140.306900,-5.129130,11.188148,3.259277,-5.709208,55.105854,-115.248909
29,932343820,-48.169659,-47.451504,137.368729,-7.250082,13.641335,5.309928,-9.980868,45.593716,-130.478348
30,932360487,-46.148125,-48.316322,133.710602,-7.496112,13.813248,6.175338,-40.056522,71.710381,-138.215118
31,932377154,-43.793571,-49.048199,129.481857,-5.734789,11.955752,6.833660,-47.824745,86.413208,-149.594604
32,932393821,-41.096111,-49.607727,125.145081,-5.335331,10.801947,7.543501,-34.031597,88.777351,-147.816376
33,932410488,-38.430519,-49.584499,120.659668,-3.544449,11.545492,7.504662,-43.523373,111.750130,-133.211090
34,932427155,-36.038761,-48.691109,115.908394,0.179433,10.826951,5.620568,-70.627022,154.630112,-116.073387
35,932443822,-33.781788,-47.055714,111.468987,3.425392,7.480791,4.462204,-60.680752,181.827469,-90.391098
36,932460489,-31.651567,-45.074245,108.086189,3.268433,2.073107,5.246968,-16.895288,175.293381,-54.260811
37,932477156,-30.051863,-42.873310,106.366852,-0.001295,3.267626,4.626547,25.823166,150.627701,3.958199
38,932493823,-29.054094,-39.454884,105.404228,2.598592,4.553727,0.554132,23.308271,199.067734,63.310677
39,932510490,-27.395353,-34.892708,105.031792,8.762293,1.950138,-5.069692,87.446884,248.828735,113.733429
40,932527157,-24.113268,-30.069363,105.193344,9.244914,-4.617106,-8.270468,203.504868,256.363129,133.070557
41,932543824,-20.194368,-25.403059,106.818169,2.305512,-12.649860,-8.483426,281.872223,226.031494,185.447388
42,932560491,-17.311686,-21.156948,110.163071,1.206119,-22.454594,-7.982622,253.684921,181.122971,256.404602
43,932577158,-16.384630,-17.590408,114.130096,5.265962,-29.291294,-10.947537,136.068024,138.774704,276.812134
44,932593825,-17.441814,-14.969646,117.824944,2.817714,-30.261293,-11.211690,0.256414,87.541641,249.193634
45,932610492,-20.655224,-12.667257,120.005455,-5.711785,-20.692352,-8.814019,-160.028473,88.108368,165.021362
46,932627159,-26.466171,-10.079199,119.789856,-12.791074,-11.353448,-7.458076,-349.700104,146.436340,50.306213
47,932643826,-33.901093,-7.919170,118.182434,-5.347046,-7.130556,-6.248292,-459.679108,158.966278,-17.314428
48,932660493,-40.446243,-7.548860,115.758881,6.110490,-8.114960,0.196831,-410.819122,103.756081,-101.583931
49,932677160,-44.082733,-9.699859,112.923454,7.607181,-11.814575,4.321624,-242.225037,16.540686,-211.451477
50,932693827,-44.077976,-13.836902,110.282585,1.885258,-14.762241,1.421501,-30.629850,-71.451202,-284.293915
51,932710494,-41.954376,-18.650934,107.550468,-3.690272,-15.564359,-3.348112,82.869804,-104.912773,-312.299683
52,932727161,-39.082851,-23.305487,104.689407,-4.952784,-14.163836,-5.334243,112.087097,-109.265076,-303.510315
53,932743828,-36.013596,-27.507124,101.856064,-1.858778,-12.298129,-5.636807,112.486885,-107.441109,-275.598785
54,932760495,-32.438858,-31.353359,99.124809,1.915562,-11.287170,-5.860609,135.257126,-111.746765,-248.001022
55,932777162,-28.222206,-34.917831,96.858597,3.632665,-10.439775,-6.113029,179.990402,-128.363907,-206.483963
56,932793829,-24.031116,-38.187504,95.544632,4.543100,-8.244503,-6.023801,205.879471,-149.566589,-143.457245
57,932810496,-20.771223,-41.165604,95.446968,4.889918,-5.091756,-4.766967,193.256088,-164.826660,-72.471169
58,932827163,-19.124458,-43.850883,96.876221,5.437196,-1.958249,-3.177276,158.188644,-174.358841,4.271080
59,932843830,-19.458151,-46.138199,100.020340,8.280035,2.362568,-2.266796,114.822205,-174.909500,80.395828
60,932860497,-20.997250,-47.865044,104.146927,10.538844,7.815317,0.377991,90.205040,-156.874954,122.410789
61,932877164,-22.415646,-49.448380,108.376556,6.824769,14.131164,8.349936,106.874573,-151.514908,120.390312
62,932893831,-23.582769,-50.838070,112.257324,1.419856,19.709534,15.609108,110.139694,-136.285828,104.541595
63,932910498,-24.760672,-51.534786,114.888046,-3.869501,19.855217,15.742634,53.722607,-79.857590,72.892639
64,932927165,-25.397022,-52.195248,116.333298,-5.135865,17.835766,14.033752,31.432091,-59.759121,31.469015
65,932943832,-24.166914,-53.678692,116.061974,-5.329364,17.334063,12.921471,62.226372,-77.830704,-46.431660
66,932960499,-21.247356,-55.814140,114.325111,-5.404368,17.866274,10.806921,91.467834,-96.062187,-105.144257
67,932977166,-16.901901,-58.132050,111.009796,-3.484265,18.693712,8.015480,95.312965,-97.017212,-148.080872
68,932993833,-10.859522,-60.420639,106.007828,-1.294666,18.520437,5.190009,105.861504,-97.426933,-181.921951
69,933010500,-3.222656,-62.482983,99.561821,-0.170552,17.651134,4.161596,119.737114,-100.958282,-198.706955
70,933027167,5.414459,-64.033669,92.092163,0.461352,15.358516,3.919218,119.221405,-97.632317,-199.944626
71,933043834,14.097617,-64.940788,84.208282,2.433829,13.203205,3.820092,95.330620,-88.928513,-191.672729
72,933060501,21.830902,-65.126793,76.777908,3.578507,10.875702,3.614778,61.118290,-69.479622,-175.683807
73,933077168,27.502350,-64.614799,70.893082,4.115230,8.468181,3.207066,21.952799,-35.531441,-149.252151
74,933093835,30.208199,-63.384182,67.281525,5.391172,5.824713,2.204669,-31.059473,17.950184,-119.063042
75,933110502,29.915283,-61.602940,65.987801,4.610161,3.540688,1.503149,-85.065025,73.695679,-84.840248
76,933127169,26.625126,-59.058159,67.036118,2.845069,3.527589,-0.544247,-141.364670,148.390533,-45.184067
77,933143836,21.184399,-55.724182,69.885475,2.505335,1.711809,-4.254429,-180.941833,219.365082,2.899499
78,933160503,15.015716,-51.846481,73.527267,0.796534,0.119926,-7.391335,-192.240479,260.382629,50.170498
79,933177170,8.663699,-47.835468,77.587341,-0.303372,-4.015210,-8.497744,-193.300507,266.883118,104.130997
80,933193837,2.254585,-43.793785,82.435730,-2.265996,-5.221425,-9.292919,-174.220947,259.737946,178.514725
81,933210504,-4.250613,-39.098415,87.925705,-3.114658,-8.797835,-12.416391,-170.385529,276.340668,251.557816
82,933227171,-10.298287,-33.658779,93.536301,-6.300739,-15.771741,-14.827244,-161.200287,288.327026,309.962769
83,933243838,-16.130219,-28.004725,98.876877,-11.457890,-25.117928,-17.228619,-183.657944,266.244202,345.255127
84,933260505,-22.443869,-22.608681,102.670547,-12.248960,-27.097178,-13.237041,-279.606598,236.622040,301.085602
85,933277172,-29.025688,-17.419882,104.261177,-11.869692,-14.969875,-5.054280,-360.475525,240.593369,215.931595
86,933293839,-35.762524,-12.568835,104.109322,-10.471857,-5.814911,-0.814137,-404.877991,249.575439,148.485168
87,933310506,-42.463100,-8.872901,102.572533,-1.690838,-7.000950,-3.637697,-417.611969,228.293411,69.511307
88,933327173,-46.356369,-7.824254,100.004395,7.960770,-15.189881,-0.676813,-254.516266,150.579926,-65.019348
89,933343840,-43.912060,-10.029108,96.958099,5.550201,-22.474800,-0.386467,119.658768,33.579285,-221.282654
90,933360507,-35.776947,-13.851419,93.996353,-12.012172,-21.578081,-8.236464,452.468353,-65.810585,-280.798157
91,933377174,-27.710752,-16.764864,90.702118,-17.135683,-17.269295,-4.329049,432.957214,-49.522743,-254.422363
92,933393841,-22.439734,-17.991428,87.135971,-2.068195,-14.761623,1.836823,253.661423,18.637865,-216.247787
93,933410508,-18.684950,-18.256863,83.558578,8.140116,-14.791975,3.236877,159.866409,55.464581,-196.701614
94,933427175,-15.104410,-18.362011,80.973572,7.460980,-9.563415,1.455069,167.525940,35.461044,-142.834869
95,933443842,-12.077859,-18.408905,80.280151,6.504574,-3.792796,1.595853,169.944992,5.241453,-39.134296
96,933460509,-9.917054,-18.352541,81.597534,8.020221,-1.081749,2.538508,156.047531,-12.279449,74.171196
97,933477176,-8.475598,-18.348522,84.042206,7.420727,-0.478949,2.437097,134.135941,-23.287510,137.352203
98,933493843,-8.262868,-18.417913,87.420799,6.375641,1.615175,3.840336,78.171974,-33.379658,189.589096
99,933510510,-9.540135,-18.414232,91.586166,5.686430,5.834512,5.424093,3.820527,-37.718521,234.146835
100,933527177,-12.110698,-18.161108,96.236313,5.034972,8.235872,6.188025,-65.141083,-36.070919,262.896210
101,933543844,-15.191810,-17.606354,101.210831,3.929065,8.598111,6.016053,-91.653404,-35.905525,283.680603
102,933560511,-18.239944,-16.603851,106.287933,2.648382,9.175209,4.725704,-91.727577,-27.340185,295.949890
103,933577178,-21.187876,-15.156475,110.636986,1.623303,8.442277,5.930840,-103.939911,-4.094658,265.374908
104,933593845,-23.511938,-14.123878,114.294914,0.209657,9.209541,6.412104,-82.477982,-24.587963,219.764175
105,933610512,-25.008547,-13.950159,117.534866,1.548328,9.872063,5.364080,-41.184544,-69.075661,176.009476
106,933627179,-25.580284,-14.793710,120.446548,1.632996,10.817511,2.623812,10.510424,-119.125740,131.185303
107,933643846,-25.484549,-16.423433,122.854996,-0.066213,11.610233,0.219644,46.078568,-149.262177,83.257149
108,933660513,-25.017651,-18.663837,124.577843,-2.839641,10.803949,-0.404131,60.626720,-164.649231,31.620228
109,933677180,-24.618765,-21.445969,125.677147,-5.656753,9.669463,-0.888597,48.009903,-178.529022,-14.003557
110,933693847,-24.784649,-24.601202,126.349297,-6.171553,10.021656,-1.840862,7.290566,-188.499939,-45.552841
111,933710514,-25.380909,-27.882572,126.407402,-4.303605,12.067571,-2.717761,-32.755001,-180.626465,-80.780502
112,933727181,-25.884012,-31.212154,125.563095,-3.179476,13.545662,-2.471619,-53.688965,-162.011383,-126.304184
113,933743848,-26.095106,-34.609650,123.857338,-4.114187,12.813257,-1.228481,-66.796295,-146.515335,-166.699036
114,933760515,-26.314695,-38.104061,121.666504,-4.924971,11.347350,0.264399,-89.620560,-142.273956,-187.692245
115,933777182,-26.786188,-41.621323,119.230408,-3.509034,11.051069,1.455204,-120.498512,-139.513489,-194.819275
116,933793849,-27.289570,-44.981663,116.378883,-0.674178,11.284164,2.323832,-146.065994,-123.846962,-202.667191
117,933810516,-27.342283,-47.963509,112.643211,1.697347,11.717008,3.221092,-164.195602,-88.960396,-219.332932
118,933827183,-26.816999,-50.258415,107.937645,2.785249,10.975543,4.976362,-180.471909,-39.273495,-227.305038
119,933843850,-26.096104,-51.770206,103.295952,4.955396,8.770268,7.160936,-171.782516,-3.971081,-197.352783
120,933860517,-24.867323,-52.815731,98.761871,6.612798,7.002581,7.167370,-140.058777,14.119945,-177.267822
121,933877184,-23.073891,-53.106976,93.716972,8.056963,6.941934,7.430807,-132.588638,57.249428,-173.785370
122,933893851,-21.067070,-52.330158,88.726860,10.509533,4.446201,5.861252,-116.406960,110.439301,-150.665283
123,933910518,-18.672867,-50.813862,84.668907,10.899632,0.978698,3.167653,-45.686733,136.095093,-111.531578
124,933927185,-15.742375,-49.315113,82.106705,8.802578,-2.539179,2.335945,59.356258,114.226952,-67.821236
125,933943852,-12.367496,-48.314583,81.071640,6.841594,-3.000877,1.974179,157.167450,67.316132,-25.270309
126,933960519,-8.884245,-47.568901,81.341843,4.741936,-2.560435,1.042130,222.456329,41.117050,18.737217
127,933977186,-5.787222,-46.664577,82.504791,1.867364,-2.317322,0.720771,238.375443,46.885494,53.828678
128,933993853,-3.763114,-45.307972,84.765198,-2.013658,-4.377858,1.723231,220.403534,72.382469,100.479210
129,934010520,-3.534208,-43.099373,88.247597,-2.940294,-4.027690,0.597652,160.868988,121.773216,157.713074
130,934027187,-4.481851,-39.372677,92.268951,-1.399337,-6.863670,-3.022196,103.692017,209.352203,196.422180
131,934043854,-5.504640,-34.587975,96.255196,-4.510751,-15.162579,-6.133132,84.071724,268.296753,215.160965
132,934060521,-6.853787,-29.752930,100.295700,-10.396123,-23.627369,-7.071910,49.713535,265.234894,235.081421
133,934077188,-9.110492,-25.571241,104.270485,-10.623143,-24.870882,-11.188030,-23.079351,218.038666,243.880463
134,934093855,-12.263448,-22.170897,107.371857,-6.452877,-19.782480,-11.757735,-112.301941,167.865616,204.921066
135,934110522,-15.858286,-19.831799,109.066948,-7.190484,-13.162576,-10.103580,-177.740143,112.044800,126.074348
136,934127189,-19.932371,-18.710983,109.139359,-7.619290,-10.401906,-9.145833,-241.557541,61.707748,24.437290
137,934143856,-23.873850,-19.092920,107.636597,-6.144536,-10.565193,-9.523502,-264.243896,9.511081,-87.834717
138,934160523,-26.974995,-20.905655,105.025467,-3.849798,-15.209756,-8.427910,-238.174088,-36.073799,-179.810745
139,934177190,-28.656404,-23.851728,101.816376,-4.188269,-19.252865,-6.551838,-172.720139,-74.296913,-240.085190
140,934193857,-29.091576,-27.254766,98.876389,-4.360254,-18.743666,-6.280585,-100.763306,-103.004204,-238.076187
141,934210524,-28.887083,-30.381460,96.447678,-1.695618,-15.434210,-5.726732,-56.543976,-103.312263,-202.710693
142,934227191,-28.535297,-32.824177,94.781250,1.641843,-13.438091,-3.879386,-29.857599,-88.753036,-145.227051
143,934243858,-28.046261,-34.725613,94.286415,3.676126,-11.919443,-1.860604,14.278809,-89.905655,-75.936218
144,934260525,-27.431284,-36.371735,95.596626,5.271964,-10.383502,0.173903,84.047729,-118.335678,10.504560
145,934277192,-27.067585,-37.959354,99.420441,5.916583,-8.237714,1.697649,161.863510,-169.523346,118.800545
146,934293859,-27.712976,-39.349709,106.191948,7.869156,-7.686290,3.205276,216.523972,-221.090378,243.223282
147,934310526,-29.937624,-40.132923,115.600868,11.446938,-4.649479,3.704144,229.045746,-251.457672,357.456390
148,934327193,-32.936523,-39.807270,125.771500,15.593405,0.393092,3.419332,213.748505,-228.347687,408.869720
149,934343860,-35.105873,-38.431309,135.493301,15.486789,7.172916,4.831412,239.471680,-186.038071,420.909576
150,934360527,-35.600498,-36.421856,144.615814,10.036027,12.619533,6.747511,304.398163,-154.494415,423.942200
151,934377194,-35.296928,-33.519203,153.322952,3.347646,15.683954,7.740438,319.016968,-107.814232,449.438263
152,934393861,-35.175339,-30.002888,161.553986,2.430104,17.629072,6.942822,268.647858,-71.352180,464.367523
153,934410528,-34.589958,-27.194952,169.678757,0.112335,18.058247,5.950509,269.825623,-107.905075,447.199554
154,934427195,-33.291363,-25.629690,177.795959,-4.968305,17.610876,3.623233,295.842621,-166.833954,414.120605
155,934443862,-32.095383,-24.803192,-174.988098,-6.866410,17.745907,1.570497,257.531006,-170.941940,356.260986
156,934460529,-31.319178,-24.810814,-169.089157,-10.136896,17.323792,0.900914,196.451859,-170.278381,272.941833
157,934477196,-31.273376,-25.767023,-164.805527,-14.250528,15.370755,1.416831,113.971169,-170.730270,168.623962
158,934493863,-32.265717,-27.001495,-162.683105,-16.940304,13.757205,0.012976,-1.482689,-124.035019,57.851196
159,934510530,-34.153587,-27.874844,-162.928207,-16.270550,13.270381,0.078996,-118.568504,-37.693890,-39.760880
160,934527197,-36.800747,-28.342901,-165.504364,-14.346238,15.203097,1.229173,-230.131424,55.280685,-127.473724
161,934543864,-40.026520,-28.627319,-169.974747,-11.126728,16.497679,1.587227,-319.873413,132.177338,-195.501953
162,934560531,-43.427498,-29.080193,-175.751114,-7.241997,17.180170,2.233398,-369.639801,180.880264,-244.829971
163,934577198,-46.464272,-30.071749,177.693222,-3.364776,16.307585,3.516374,-374.652618,198.727493,-284.321259
164,934593865,-48.797558,-31.668600,170.791794,-0.682797,15.098819,4.933030,-350.767029,197.207947,-310.400085
165,934610532,-50.213013,-33.738636,163.724884,2.865880,14.127466,6.634115,-312.390778,189.899689,-326.188629
166,934627199,-50.667973,-35.985359,156.574081,6.297261,12.642725,7.476486,-270.970032,184.779800,-328.117584
167,934643866,-50.134441,-38.083122,149.394852,10.223069,10.194042,7.606316,-225.935837,183.949326,-316.130280
168,934660533,-48.555561,-39.953533,142.430176,11.953417,6.358076,6.743805,-166.899460,172.384766,-296.613953
169,934677200,-46.259022,-41.486191,136.159378,10.954269,3.126912,5.939092,-106.215576,146.859863,-260.678986
170,934693867,-43.921120,-42.391125,131.042557,8.069041,1.066525,5.338964,-63.443047,122.546997,-199.736816
171,934710534,-41.962593,-42.361767,127.448792,5.456707,0.898518,2.885365,-26.323215,108.933624,-115.513039
172,934727201,-40.263386,-41.081020,125.405716,4.947047,0.620062,0.728075,21.868828,117.191238,-18.537397
173,934743868,-38.394112,-38.520119,124.605438,5.886758,-0.437013,-1.157375,82.909409,141.373962,68.712418
174,934760535,-35.935143,-34.947113,124.669739,5.662451,-5.492646,-2.042060,151.306381,168.122772,131.835953
175,934777202,-34.027439,-30.512522,125.155579,0.760121,-13.068164,-4.548783,131.691681,203.072632,172.502014
176,934793869,-33.057083,-24.811571,125.760300,-1.208751,-17.406874,-5.958132,76.554527,266.425690,215.662994
177,934810536,-33.199562,-17.875103,125.776199,-0.276839,-21.965998,-7.729432,-6.675144,347.127197,228.044907
178,934827203,-34.520412,-10.249539,125.075409,1.435023,-26.913746,-11.416538,-87.840797,401.719788,220.905838
179,934843870,-36.374786,-3.185585,124.342377,1.588095,-27.077490,-13.792727,-114.771606,369.662231,210.059464
180,934860537,-39.293095,2.390713,123.354874,1.538036,-17.556759,-14.380804,-173.882416,299.628723,158.269699
181,934877204,-43.891964,6.392677,121.334839,-2.727490,-8.486166,-13.038284,-265.031891,258.854584,68.839310
182,934893871,-48.986328,8.792185,118.889923,-5.134683,-4.018712,-11.889709,-284.719269,203.608536,3.954318
183,934910538,-53.099537,9.541118,116.904495,-4.085169,-4.402389,-8.682813,-226.323792,118.709908,-39.165546
184,934927205,-55.407352,8.525591,115.883286,-0.272792,-9.266731,-3.934954,-127.386497,12.504950,-84.961761
185,934943872,-55.705997,5.582032,115.522552,0.955128,-13.972538,-3.686040,-13.810019,-83.198158,-157.953064
186,934960539,-54.469624,1.553809,115.630829,-3.754773,-18.890377,-7.599259,75.189178,-144.674026,-194.650009
187,934977206,-53.544941,-2.083790,115.827248,-4.968072,-21.751455,-8.574733,56.943996,-138.841934,-169.836121
188,934993873,-54.062649,-4.708534,115.071381,-1.525758,-20.937658,-4.407320,-32.326412,-57.530464,-153.999542
189,935010540,-54.426949,-6.585018,113.861275,-0.832772,-18.791414,0.131899,-27.591143,-8.219927,-133.777237
190,935027207,-53.842743,-7.828571,113.040642,-1.652042,-15.851524,1.118665,30.276037,-5.213411,-89.283348
191,935043874,-52.821823,-8.372836,112.766182,-1.324244,-14.199125,3.294011,60.331383,-7.520547,-36.135090
192,935060541,-51.023174,-8.238349,113.447662,0.759750,-13.320478,5.284989,115.213600,-27.975569,31.094358
193,935077208,-48.569477,-7.158313,115.490005,3.304145,-11.343931,7.740782,165.002182,-52.043011,127.679718
194,935093875,-45.988094,-4.758369,119.017990,6.152971,-6.926718,11.087774,178.162445,-58.143517,248.413361
195,935110542,-43.951752,-0.948321,123.979980,8.354634,-1.524245,13.839523,138.252075,-49.666321,371.672180
196,935127209,-42.151516,3.709295,130.422653,12.681900,5.029919,13.526264,99.890266,-60.995193,472.844330
197,935143876,-40.142464,8.150149,138.255417,11.198829,8.983294,12.457838,73.099472,-108.418884,526.934021
198,935160543,-38.328243,11.455508,147.051865,8.882906,12.151774,9.778025,20.111195,-176.768417,527.863831
199,935177210,-37.519733,13.433567,155.983276,5.460144,11.769223,7.937513,-65.690369,-229.241745,485.361542
200,935193877,-37.721657,13.738041,164.728928,4.452276,10.521338,6.468994,-133.966751,-297.944824,414.919617
201,935210544,-38.732681,12.284060,172.995300,6.459884,13.686348,5.625065,-170.836761,-368.496368,325.570496
202,935227211,-40.502319,9.370495,-179.861526,5.940915,18.415201,4.723795,-185.142288,-404.004395,212.812881
203,935243878,-42.303352,5.282204,-173.737366,1.715264,18.486963,2.919163,-153.373703,-425.958252,111.186722
204,935260545,-44.026897,0.579209,-168.417084,-2.298373,16.433989,0.893053,-118.182480,-424.851654,39.502121
205,935277212,-45.954369,-4.034165,-164.041931,-4.901129,14.094171,-0.756330,-106.179199,-382.254639,-10.163358
206,935293879,-47.902229,-8.274751,-160.624893,-7.041151,12.563418,-2.179655,-93.353104,-323.671051,-46.746559
207,935310546,-49.693062,-12.099421,-158.112030,-8.512862,12.838434,-2.591398,-79.269447,-263.818878,-75.041367
208,935327213,-51.022617,-15.692247,-156.235443,-10.577171,13.028691,-3.033483,-51.228336,-222.710922,-96.407677
209,935343880,-52.004910,-19.131294,-155.074768,-11.934510,13.700354,-3.710546,-36.597923,-181.430984,-120.320412
210,935360547,-52.926762,-22.442463,-154.797043,-12.454444,13.626166,-3.817245,-47.886314,-134.390884,-148.217178
211,935377214,-53.945309,-25.630123,-155.548065,-14.616851,11.239943,-3.834511,-77.943504,-81.868454,-178.301453
212,935393881,-55.493549,-28.468565,-157.781830,-16.217180,7.756378,-3.163727,-152.293625,-1.887958,-208.126465
213,935410548,-57.490440,-30.994360,-161.473175,-16.998087,5.554717,-1.566227,-228.073044,75.778275,-232.675812
214,935427215,-59.487137,-33.299995,-166.660995,-15.774529,7.016462,1.694874,-283.817139,151.509171,-255.784927
215,935443882,-60.800152,-35.554985,-173.517639,-11.681318,10.733423,4.533235,-309.753876,226.120102,-286.286835
216,935460549,-60.813087,-37.751602,178.367722,-5.958155,12.408110,5.624774,-289.896545,275.892731,-305.482971
217,935477216,-59.364510,-39.705261,169.773453,-2.249867,11.463297,5.951930,-234.268768,289.382904,-302.041748
218,935493883,-56.691864,-41.206062,161.541138,-0.227153,9.996218,7.198460,-158.773468,270.241608,-275.259125
219,935510550,-53.347172,-42.282909,154.300247,2.160181,9.013704,8.666679,-87.209824,227.633575,-238.705582
220,935527217,-49.665455,-43.039799,148.271835,5.917041,9.145689,8.962511,-22.803244,179.000702,-201.090027
221,935543884,-45.148201,-43.342709,143.888046,7.625196,7.862616,6.811224,92.453339,127.972298,-143.214615
222,935560551,-39.677826,-43.349964,141.834641,7.408081,6.043230,4.699082,245.148224,59.229118,-66.538582
223,935577218,-34.032104,-43.017910,141.520630,6.946952,2.873061,3.460446,327.354492,23.307539,0.847737
224,935593885,-28.995352,-41.717129,141.961243,8.871735,0.572194,1.208267,321.514038,55.458973,57.339153
225,935610552,-24.720745,-39.333721,142.212143,9.784519,-5.296126,-1.385451,267.759918,121.528641,74.718788
226,935627219,-21.877775,-35.746490,142.305176,7.138579,-9.473863,-4.289513,175.440918,195.037735,89.054268
227,935643886,-20.898491,-30.869707,142.029907,7.054269,-11.858036,-6.402225,51.156704,276.566589,93.685783
228,935660553,-21.651800,-25.014732,141.484909,8.106436,-15.434473,-9.126799,-58.969505,336.893524,100.393295
229,935677220,-23.478859,-18.964458,140.856018,10.723810,-20.612963,-10.969728,-122.143806,347.704071,106.838348
230,935693887,-26.161556,-13.490348,140.232468,11.865886,-22.693199,-14.215034,-169.798355,312.238739,105.108688
231,935710554,-29.645866,-9.339094,139.041061,8.831982,-21.010649,-13.662827,-221.619568,251.950378,54.468414
232,935727221,-34.124168,-6.915550,136.671753,-2.262035,-13.098901,-14.494478,-287.236298,196.833832,-42.881176
233,935743888,-38.963104,-5.870874,133.472992,-6.895293,-5.494681,-10.563930,-310.150665,162.945023,-116.121506
234,935760555,-42.933498,-6.232836,130.123062,-2.202825,-4.326514,-5.531183,-257.878723,113.598183,-165.386826
235,935777222,-45.007435,-8.383721,127.205582,0.543718,-8.297713,-1.482320,-145.204056,26.681671,-214.720566
236,935793889,-45.544521,-12.018428,124.992897,-2.769035,-13.536800,-2.647424,-54.269951,-61.616966,-247.046463
237,935810556,-45.524570,-16.044380,123.202599,-6.276911,-13.696857,-5.362168,-23.404282,-95.839165,-245.545380
238,935827223,-45.362034,-19.864635,121.232010,-5.579396,-12.768730,-5.758533,-25.268486,-81.689423,-242.396255
239,935843890,-45.544899,-23.104303,118.940994,-5.121222,-12.822990,-6.301415,-59.887447,-46.223141,-228.405792
240,935860557,-46.344326,-25.514492,116.763084,-3.605023,-12.250227,-6.421891,-100.325523,-16.014565,-186.894653
241,935877224,-47.482616,-27.137997,115.218063,-1.778449,-11.109523,-4.886574,-107.976349,-6.930523,-128.060074
242,935893891,-48.719574,-28.091686,114.624138,-0.256763,-10.783620,-3.207609,-89.317818,-15.785214,-63.853424
243,935910558,-50.252701,-28.357822,114.932426,1.381091,-10.442820,-2.213435,-81.815765,-23.857025,-1.720706
244,935927225,-52.193760,-27.815351,116.190659,2.163210,-9.962537,-1.268764,-79.498871,-32.631641,66.907677
245,935943892,-54.487751,-26.367672,118.423294,2.921960,-8.525412,0.447190,-75.201729,-44.908844,140.685913
246,935960559,-56.821846,-24.016006,121.547600,4.076289,-7.460470,2.550805,-58.791714,-61.575951,211.983673
247,935977226,-58.997974,-20.727551,125.455154,5.700401,-6.517977,4.399285,-39.842091,-80.007271,282.076843
248,935993893,-60.831394,-16.472506,129.998459,7.568748,-4.849911,5.705420,-21.547520,-96.765488,350.113373
249,936010560,-61.959045,-11.573204,135.034897,8.993452,-2.683688,7.153332,7.050793,-117.895393,398.093445
250,936027227,-62.132771,-6.430053,140.345261,8.937699,-0.111865,8.461744,40.838718,-134.579681,419.734253
251,936043894,-61.254272,-1.433248,145.793030,7.422623,2.272156,8.091127,76.430038,-146.182877,418.221832
252,936060561,-59.570976,3.222901,151.136536,7.736954,5.123286,7.952551,97.236443,-142.047607,400.878143
253,936077228,-57.401947,7.370643,156.275314,9.107142,6.654689,9.765066,102.905312,-132.850922,372.331726
254,936093895,-54.419079,10.474120,161.719650,9.961452,9.496095,10.902470,129.513016,-164.026672,334.782074
255,936110562,-50.761116,12.258721,167.755096,7.669345,11.223213,9.366625,149.283340,-218.064423,300.465912
256,936127229,-47.124973,12.737824,174.213013,4.779155,12.793591,6.461937,135.498276,-267.420654,269.905914
257,936143896,-44.199741,12.198743,-179.213562,1.735336,12.999611,3.686985,91.586464,-299.043091,245.822693
258,936160563,-42.310699,10.918377,-172.908936,-1.999453,12.537221,1.570968,38.847538,-310.877441,217.122864
259,936177230,-41.578270,9.076584,-167.251480,-4.989397,11.182410,0.212761,-13.600265,-306.606354,174.655380
260,936193897,-41.830765,6.743342,-162.336960,-7.329310,8.936550,-0.340426,-54.287643,-299.800293,124.800232
261,936210564,-43.026100,4.207923,-158.314713,-9.775755,7.376024,-0.221473,-93.268745,-275.360352,74.567650
262,936227231,-44.728123,1.567016,-155.248367,-11.336970,7.225003,0.508685,-109.897392,-242.583405,22.488699
263,936243898,-46.366463,-1.045731,-153.113480,-13.353637,7.316055,0.795037,-97.395630,-202.238632,-22.334949
264,936260565,-47.886158,-3.442073,-152.120544,-15.151587,7.762235,0.028002,-87.360275,-142.468887,-65.010117
265,936277232,-49.302292,-5.526896,-152.613251,-16.154518,8.991905,-0.816137,-85.781670,-61.631145,-113.458031
266,936293899,-50.484417,-7.331684,-154.878906,-15.895061,10.692683,-1.792752,-84.630516,32.574467,-169.971802
267,936310566,-51.274006,-8.878957,-158.908096,-14.434247,11.075744,-3.553480,-79.916588,126.140671,-223.125381
268,936327233,-51.844162,-10.141029,-164.462372,-12.562553,11.074541,-4.850646,-87.706055,209.413437,-263.712921
269,936343900,-52.373173,-11.122039,-171.347778,-10.932553,12.534310,-5.662929,-106.374184,283.362823,-295.863831
270,936360567,-52.955265,-11.862496,-179.446167,-7.891111,14.172963,-5.492326,-130.119675,350.731628,-324.123199
271,936377234,-53.559956,-12.425610,171.588226,-3.998836,14.829340,-4.673770,-147.821152,400.318024,-341.690521
272,936393901,-53.860401,-12.820190,162.251266,-0.694957,15.097172,-3.622172,-138.855164,425.717133,-342.640503
273,936410568,-53.498722,-13.004863,153.059021,2.696774,14.962550,-1.229957,-100.038757,425.657959,-327.340424
274,936427235,-52.200245,-13.026252,144.517349,7.300191,13.191809,3.875303,-36.105778,396.284698,-302.572449
275,936443902,-49.797764,-13.190601,136.888351,13.007868,10.155795,10.162300,41.671986,339.347748,-288.220581
276,936460569,-45.982288,-14.084624,130.238998,13.465123,7.030154,13.752453,136.145111,250.827225,-299.768799
277,936477236,-41.472870,-15.219885,124.327568,6.372360,3.479361,10.992720,182.148346,187.150055,-295.062988
278,936493903,-36.392250,-16.099089,119.603714,0.007405,1.558464,4.913967,229.677414,129.671021,-245.540848
279,936510570,-30.855970,-16.318777,116.354294,-2.219705,-1.535929,1.859134,279.188202,91.854141,-163.269836
280,936527237,-25.004889,-16.611103,114.106743,5.455270,-3.654200,6.348518,314.293915,44.252773,-122.597855
281,936543904,-18.682968,-17.536030,112.179527,12.390825,-5.771476,6.940510,346.818359,-11.232966,-123.389488
282,936560571,-12.743677,-19.244116,110.789711,7.453729,-8.191525,6.167155,331.497192,-78.101730,-104.108978
283,936577238,-8.223605,-21.286951,110.019905,5.206680,-8.401123,4.543972,256.669525,-113.535118,-65.067108
284,936593905,-5.482499,-23.058531,109.842896,5.260214,-8.942151,1.975618,161.945114,-105.259079,-22.597782
285,936610572,-4.237075,-24.282822,110.430542,4.768997,-10.574566,-0.628981,90.378128,-76.835434,25.793499
286,936627239,-4.529634,-24.826860,111.728142,4.162641,-13.441505,-1.851980,16.302446,-38.881348,67.947762
287,936643906,-6.618275,-24.596235,113.538734,2.722112,-16.152952,-2.989493,-78.392326,3.239530,99.403061
288,936660573,-10.376009,-23.630388,115.493744,1.062289,-18.246283,-5.489867,-176.020325,40.524761,114.299278
289,936677240,-15.094862,-22.101006,117.201523,-0.818275,-18.001677,-10.168158,-241.789551,67.705803,112.184669
290,936693907,-20.425884,-20.153658,118.195305,-1.611538,-17.059677,-14.361019,-296.850525,93.317635,88.479713
291,936710574,-25.803043,-18.500801,117.970222,-1.609647,-13.878983,-16.690569,-325.606323,95.213287,27.070377
292,936727241,-30.651377,-17.585699,116.580673,-0.767597,-10.518392,-15.336016,-315.248291,84.853569,-44.060188
293,936743908,-34.402550,-17.777849,114.131287,-0.054724,-9.012511,-11.653040,-268.222687,64.527176,-124.447403
294,936760575,-36.602039,-19.065763,111.197800,-1.455975,-10.147064,-9.768003,-186.108887,33.020267,-181.001083
295,936777242,-37.743526,-21.021307,108.434563,-2.708385,-11.213021,-9.063148,-123.855827,-0.429183,-195.186554
296,936793909,-38.527287,-22.994169,106.226288,-2.945583,-10.587341,-7.605724,-95.225006,-18.325222,-169.894135
297,936810576,-39.436275,-24.725317,104.968391,-3.132064,-8.367477,-5.434250,-83.626350,-38.415817,-119.185501
298,936827243,-40.873169,-25.876461,105.015747,-1.679112,-5.086747,-2.133767,-83.561050,-55.561478,-42.763569
299,936843910,-42.703888,-26.536575,106.157768,-0.501139,-3.061269,0.921678,-78.152832,-71.610107,19.246956
300,936860577,-44.528946,-27.089661,108.540382,-0.897411,-3.639830,1.561657,-43.581570,-113.147545,69.281433
301,936877244,-46.830517,-27.584755,112.173248,-2.493788,-3.035402,-0.028574,-36.545254,-160.387650,113.830902
302,936893911,-49.926888,-27.791046,116.790909,-2.747352,-2.953722,-0.673609,-55.559551,-192.724136,153.500610
303,936910578,-53.923008,-27.694035,122.182999,-0.592095,-3.622366,0.392394,-87.636635,-222.917404,180.954391
304,936927245,-58.338257,-27.019970,127.667946,1.611713,-3.316980,2.342190,-112.143715,-221.265793,196.242401
305,936943912,-62.277809,-25.313648,132.515213,1.250808,-4.298442,5.393835,-106.614182,-177.185501,217.983810
306,936960579,-65.338417,-22.527666,136.169357,1.321335,-4.290605,6.693743,-93.281944,-107.205383,238.212570
307,936977246,-67.075966,-19.664558,138.718872,1.474317,-4.067568,7.279379,-47.804497,-62.404121,214.536224
308,936993913,-67.313011,-17.406805,140.677567,0.460978,-5.286102,6.860897,24.475252,-51.303471,167.843491
309,937010580,-66.041832,-15.760043,142.793381,-0.598768,-5.437880,5.493105,113.817352,-73.715340,138.693588
310,937027247,-63.795414,-14.687065,144.958603,1.716947,-4.202208,7.266825,170.189423,-87.342659,111.247017
311,937043914,-60.588219,-14.427730,147.355682,5.913700,-3.255282,8.474142,229.859604,-116.990089,78.522942
312,937060581,-56.269974,-14.965036,150.511246,9.669169,-1.553132,7.439936,308.365234,-174.068375,68.257828
313,937077248,-51.515690,-15.979470,154.544022,10.923564,0.593529,4.315159,350.985718,-225.447708,88.112350
314,937093915,-47.296165,-16.961271,159.219299,9.669732,4.478990,2.424386,333.869354,-243.776016,130.198395
315,937110582,-43.774796,-17.763926,164.188019,6.831480,7.811630,2.423238,301.425537,-237.957916,164.824631
316,937127249,-40.886589,-18.266285,168.993881,5.567992,9.387670,1.567867,263.689087,-208.072113,182.289352
317,937143916,-38.476280,-18.354273,173.544067,3.765831,9.066473,0.429788,231.642639,-170.679382,195.955994
318,937160583,-36.615231,-18.212788,177.963593,1.950914,8.951596,0.916284,196.134109,-147.812744,204.645096
319,937177250,-35.383862,-17.939157,-177.680771,0.851391,10.335299,0.740202,156.278564,-133.841003,210.472992
320,937193917,-34.645805,-17.836422,-173.403580,-0.077333,13.126852,-0.875358,124.446892,-136.169342,203.390747
321,937210584,-34.172874,-18.338280,-169.477295,-3.796847,13.205683,-3.348611,102.879623,-152.450760,167.567612
322,937227251,-34.225655,-19.674664,-166.074615,-9.017907,11.484713,-4.826232,64.720261,-175.856201,114.420830
323,937243918,-35.236324,-21.528566,-163.494476,-14.692895,11.787513,-4.512579,-4.732804,-175.005783,55.559013
324,937260585,-37.365959,-23.559088,-162.018250,-17.893341,13.931315,-2.846338,-92.348465,-147.645493,-6.356292
325,937277252,-40.192356,-25.767799,-161.756516,-18.168968,15.098343,-0.657343,-161.517242,-113.265076,-72.033142
326,937293919,-43.309334,-28.075283,-162.734543,-17.523230,12.836365,1.641875,-212.033966,-69.429092,-131.394775
327,937310586,-46.505508,-30.382526,-165.046890,-15.880488,11.548865,4.849271,-257.916107,-13.499611,-183.649902
328,937327253,-49.233795,-32.712944,-168.939957,-11.712600,12.240866,7.772257,-284.254242,52.962669,-237.363831
329,937343920,-50.942154,-35.278629,-174.338882,-5.145868,13.269768,9.410095,-281.969604,106.456520,-290.472565
330,937360587,-51.497662,-38.167191,178.977371,1.040522,11.958930,9.385506,-271.501831,141.323608,-336.410065
331,937377254,-51.276779,-41.299618,171.633347,4.803838,9.141597,7.971666,-266.848267,146.846771,-358.224670
332,937393921,-50.493855,-44.618481,164.691391,6.633752,5.746844,6.438801,-235.339691,110.233803,-346.692841
333,937410588,-48.915386,-47.979828,158.203445,6.997140,6.527803,5.263856,-185.245132,74.053429,-327.655396
334,937427255,-46.523014,-51.052139,151.841095,7.779706,7.120771,4.337153,-145.346405,58.692383,-303.020172
335,937443922,-43.308693,-53.556084,145.726807,6.330569,5.761165,2.658997,-95.984230,51.330391,-264.877441
336,937460589,-39.575020,-55.229652,140.419876,3.960816,4.480863,0.511231,-33.380199,46.717827,-205.453751
337,937477256,-35.216133,-56.139812,135.389206,2.923421,4.634605,-0.045079,13.717888,59.224304,-168.416473
338,937493923,-30.123562,-56.360878,130.316086,3.719751,3.316751,-0.268838,53.938419,79.373802,-149.610168
339,937510590,-24.661016,-55.850845,125.848724,5.873662,0.484915,0.263578,106.739128,95.184906,-118.773933
340,937527257,-19.259432,-54.803402,122.049034,8.876279,-1.287875,-0.265012,138.083191,106.028687,-96.952599
341,937543924,-14.444092,-53.005901,118.945862,7.219269,-2.126554,-2.455233,139.939255,134.251740,-73.925461
342,937560591,-11.540322,-50.630939,116.964447,4.520832,-8.619273,-2.893931,82.266327,154.604462,-39.797146
343,937577258,-12.150786,-47.643070,116.556267,1.908467,-12.031472,-3.586230,-53.609688,177.965576,20.896206
344,937593925,-15.298839,-43.488567,117.091286,4.464718,-10.821806,-7.378585,-164.339035,236.033936,80.775436
345,937610592,-19.502420,-38.593220,118.390251,2.325950,-15.233275,-10.624989,-199.318924,261.882751,143.766876
346,937627259,-25.305902,-33.139706,120.026299,-0.026489,-23.207966,-13.471050,-288.853668,271.370117,198.141068
347,937643926,-32.968800,-27.808929,120.387375,1.561485,-24.922613,-16.160030,-446.910065,269.539948,172.007141
348,937660593,-40.869244,-23.943459,119.335236,0.800623,-19.972322,-15.071468,-499.875336,218.760880,93.804428
349,937677260,-47.380089,-22.245213,117.442535,-1.217805,-13.827389,-13.700331,-433.642517,144.954910,-4.242963
350,937693927,-51.331196,-22.405163,115.412933,-1.301757,-12.698816,-9.891375,-281.824738,78.209869,-80.872284
351,937710594,-52.992756,-24.112429,113.839828,-1.416052,-13.364025,-5.796161,-135.492889,4.603622,-134.311737
352,937727261,-53.094471,-27.082817,113.046089,-2.080844,-13.559159,-4.765265,-25.229834,-73.905449,-168.462234
353,937743928,-52.531975,-30.611553,113.239967,-4.776290,-12.647644,-5.014519,40.778122,-137.186218,-162.765106
354,937760595,-52.128685,-34.036995,114.244125,-6.210624,-10.685505,-4.424500,57.823658,-167.042923,-131.808273
355,937777262,-52.238453,-36.999691,115.806503,-6.529020,-8.018119,-3.019971,49.272022,-170.435379,-93.877380
356,937793929,-52.863270,-39.012619,117.602333,-4.891309,-6.081698,-0.740865,30.239281,-142.032608,-44.484512
357,937810596,-54.004299,-39.772507,119.523788,-4.067837,-4.944001,2.399306,6.067695,-99.932426,16.234705
358,937827263,-55.312569,-39.283390,121.516075,-2.590813,-3.414815,4.087579,-1.060849,-59.471142,77.048241
359,937843930,-56.441254,-38.154987,122.939201,0.486207,-5.962584,4.523011,-12.978146,-18.407459,93.194145
360,937860597,-56.998878,-36.787701,124.321831,1.539396,-6.581844,4.501155,18.331905,-11.276456,104.478378
361,937877264,-56.932560,-35.064026,126.021965,0.074888,-5.793702,4.138834,65.133034,-14.135003,131.489410
362,937893931,-56.499012,-32.652115,127.858154,-0.416004,-3.277467,4.468137,88.673386,1.662667,170.936844
363,937910598,-55.656834,-29.685841,129.583847,1.404717,-2.354230,4.799785,105.363136,24.539764,196.879639
364,937927265,-54.029129,-26.544363,131.469513,3.997180,-1.637842,5.220920,152.211380,25.652964,211.349670
365,937943932,-51.526157,-23.363689,133.671448,4.603110,-0.455596,5.604048,207.098755,18.786470,224.203186
366,937960599,-48.268044,-20.343620,136.396957,4.969007,0.102872,6.544983,257.509979,-0.651547,236.175018
367,937977266,-44.329155,-17.656862,139.665039,6.175306,1.167467,7.211298,301.292419,-23.952291,244.468018
368,937993933,-39.855274,-15.540595,143.548843,7.594908,2.538324,7.119089,336.079376,-56.750874,250.667404
369,938010600,-34.871143,-14.101793,148.092499,7.908416,4.469707,6.443672,369.836456,-92.648232,261.772583
370,938027267,-29.600946,-13.395426,153.338821,8.736871,7.172725,6.056437,392.019165,-128.557465,281.178253
371,938043934,-24.347170,-13.488085,159.304169,8.210052,9.951638,4.635098,399.374481,-164.143143,307.702820
372,938060601,-19.832243,-14.218265,165.816376,5.622890,10.716159,1.873684,365.401337,-184.487427,335.026947
373,938077268,-16.865690,-15.173212,172.466309,2.673007,9.794697,-0.460930,280.275665,-177.050140,348.243469
374,938093935,-15.765773,-16.111273,178.758240,0.615283,7.139771,-0.593483,168.984344,-157.266418,332.960114
375,938110602,-16.171272,-17.116127,-175.702835,-0.747382,6.354566,-0.650775,71.981018,-146.680420,289.448883
376,938127269,-17.583164,-18.187441,-171.197128,-2.182916,7.182146,-0.222469,-1.414417,-137.399918,227.710083
377,938143936,-19.529543,-19.236092,-167.751755,-4.082746,9.228771,0.052826,-49.135208,-123.055916,165.441803
378,938160603,-21.554087,-20.291304,-165.360016,-6.268285,10.636128,0.531658,-71.601349,-107.774796,104.104485
379,938177270,-23.497169,-21.356657,-163.936722,-8.214307,10.436971,1.374901,-84.857162,-90.709862,49.082970
380,938193937,-25.235691,-22.423405,-163.349838,-9.529723,9.941234,1.780679,-89.777962,-72.854630,3.195035
381,938210604,-26.794357,-23.600634,-163.621063,-10.063314,8.515318,0.902163,-98.435585,-57.953514,-44.607307
382,938227271,-28.390720,-24.820221,-164.927567,-11.031387,6.985759,-0.779815,-126.438454,-32.756172,-97.421043
383,938243938,-30.254423,-26.114174,-167.244141,-11.996371,6.487910,-1.252054,-170.056503,-7.210009,-147.595459
384,938260605,-32.315662,-27.572739,-170.564087,-12.246221,8.695305,-0.631340,-212.041672,16.585785,-197.491501
385,938277272,-34.339542,-29.451363,-174.719254,-10.765208,11.437252,0.599177,-238.804260,25.324997,-245.106293
386,938293939,-36.186417,-31.860819,-179.523727,-8.959098,12.864538,2.054847,-256.112793,24.340569,-286.040771
387,938310606,-37.923710,-34.813381,175.298325,-6.340711,12.969770,4.976106,-273.272278,14.332121,-313.979553
388,938327273,-39.417007,-38.260384,169.793365,-2.909101,12.763502,8.222595,-284.538757,3.747455,-336.496368
389,938343940,-40.327339,-42.096840,163.755447,1.450907,11.614085,10.503166,-286.650330,0.254249,-359.981293
390,938360607,-40.073322,-46.108360,156.796783,4.853300,10.479583,11.841467,-273.759369,9.296493,-384.274689
391,938377274,-37.876217,-50.015598,148.265045,7.974097,6.287332,12.711872,-247.521912,32.660099,-413.124786
392,938393941,-33.302597,-53.668301,138.115646,6.323322,-0.704963,10.170942,-203.249191,40.612103,-433.006836
393,938410608,-26.352840,-56.613323,127.582718,2.705918,2.067691,4.448415,-100.574913,26.212423,-400.759094
394,938427275,-16.608425,-58.495373,116.194305,8.374741,8.258796,1.497561,8.933806,28.893087,-381.978912
395,938443942,-3.881817,-58.860657,103.712807,14.119135,10.395219,-0.646667,124.514297,47.142033,-386.573578
396,938460609,10.417876,-58.043297,92.196037,12.644493,6.642089,-1.774053,269.749939,27.634802,-363.606201
397,938477276,23.633696,-56.651497,83.924286,11.771068,0.937034,-0.739341,376.035126,0.771996,-280.751038
398,938493943,33.664219,-54.831238,79.722534,10.328758,-1.149033,-2.043940,394.701569,27.191948,-177.383606
399,938510610,38.841797,-52.419010,80.343025,6.217087,-2.683244,-4.863519,342.006897,129.200455,-68.301239
400,938527277,39.362675,-49.780571,85.423813,0.299257,-8.607010,-8.401295,269.961060,242.850876,48.256298
401,938543944,36.291458,-47.708679,93.907394,-4.689078,-20.816402,-14.131818,200.080673,303.016876,188.425079
402,938560611,29.594362,-45.883682,103.734413,-3.368740,-37.813019,-19.903049,30.007586,310.168854,278.705994
403,938577278,18.614531,-42.019257,111.588005,-3.495474,-36.303902,-23.657963,-329.353516,348.976898,214.827362
404,938593945,6.942924,-37.575592,115.425255,-8.001381,-25.711155,-22.183559,-550.852661,298.348999,113.498665
405,938610612,-3.031855,-34.119637,115.165047,-11.563893,-14.613587,-17.652813,-605.971191,206.004471,-19.904694
406,938627279,-10.414354,-31.655291,112.201515,-7.217339,-5.498330,-12.909609,-537.935059,163.351990,-131.226288
407,938643946,-15.366106,-30.086298,107.313293,-0.122553,-7.961742,-8.174687,-446.046997,146.843842,-224.663269
408,938660613,-18.325697,-29.831579,102.248505,-1.309880,-13.360150,-6.833018,-327.828644,89.777008,-247.730713
409,938677280,-20.009872,-30.608196,98.283340,-4.440143,-15.339886,-8.676114,-219.357010,22.280424,-209.622910
410,938693947,-22.124016,-30.906511,95.350395,-8.147766,-14.604812,-7.575392,-215.431854,36.372753,-147.719269
411,938710614,-25.219727,-30.339485,93.619362,0.431295,-14.765932,-3.256806,-237.267059,65.691689,-68.376106
412,938727281,-28.775076,-29.299597,93.489578,2.973403,-11.869435,-0.005844,-215.817612,57.252422,22.089926
413,938743948,-33.311272,-27.979992,95.386734,6.567929,-11.567786,0.635737,-216.211365,14.859843,126.166016
414,938760615,-39.546001,-25.930899,99.160110,7.787051,-10.986428,1.231190,-269.934540,-22.436344,235.071106
415,938777282,-46.924492,-23.267868,104.717018,9.183662,-12.022100,1.185900,-302.204834,-92.837151,329.883514
416,938793949,-54.672634,-20.244123,111.539795,6.061404,-10.166174,1.791857,-311.243134,-181.647354,380.356689
417,938810616,-62.169640,-16.537851,119.242493,7.720482,-6.349690,4.326827,-301.995026,-258.836700,418.355621
418,938827283,-69.307007,-11.836910,127.077621,9.401970,-3.070804,7.899832,-310.951721,-301.345398,443.577240
419,938843950,-75.805733,-6.376227,134.251556,7.842909,0.609793,11.659771,-319.868805,-308.853760,439.103455
420,938860617,-79.929512,-1.456966,139.658707,-14.039767,8.002006,17.920691,-223.841904,-255.758514,355.805969
421,938877284,-80.751442,0.991867,143.666229,-19.145290,17.973852,26.904476,-47.274689,-213.494736,184.589584
422,938893951,-79.571053,0.129024,147.880020,8.143284,1.484697,20.081104,69.355896,-259.014374,-8.175074
423,938910618,-78.086357,-1.557353,152.929733,18.180712,-8.286823,1.017995,93.850586,-317.902161,-40.878044
424,938927285,-75.537216,-2.449878,160.152512,15.261173,2.451327,3.001966,168.931549,-435.013489,46.340500
425,938943952,-72.646629,-3.708701,168.294662,6.958838,13.196049,6.614536,200.422363,-490.963135,60.801853
426,938960619,-70.680214,-5.442465,175.984177,5.261350,15.536643,5.761232,155.689087,-470.357208,45.737930
427,938977286,-69.544426,-6.965279,-177.121979,4.691855,15.185912,0.407479,113.895149,-418.822510,53.744656
428,938993953,-68.751427,-8.054776,-170.700485,0.703257,13.467944,-0.641953,99.068237,-381.281860,74.631714
429,939010620,-68.355774,-8.848240,-164.642868,-3.268715,9.802729,-0.460051,78.362305,-353.070282,86.881279
430,939027287,-68.488724,-9.540565,-158.733871,-5.873594,8.899819,-1.175858,49.939529,-341.755157,89.842163
431,939043954,-69.103127,-10.319039,-153.199142,-8.267858,10.799299,-0.790098,21.725180,-322.869324,74.554344
432,939060621,-69.904305,-11.373413,-148.107712,-10.399847,10.799930,-0.608863,10.794164,-304.193909,45.615318
433,939077288,-70.907555,-12.806431,-143.550095,-12.080341,8.044775,-0.524347,-1.484659,-281.738220,8.509765
434,939093955,-72.449303,-14.559669,-139.886948,-15.629230,5.604472,-1.855445,-39.020538,-236.787903,-32.877483
435,939110622,-75.121346,-16.354517,-137.820801,-17.978971,3.907635,-2.405898,-125.735832,-145.807404,-70.184868
436,939127289,-79.157616,-18.261238,-137.837128,-16.258907,6.808822,2.014630,-240.868591,-25.549074,-111.874115
437,939143956,-83.252449,-20.769684,-139.344788,-12.672165,10.798790,6.022791,-274.230896,60.311054,-161.893341
438,939160623,-86.489769,-23.785673,-141.617813,-10.808962,9.820749,5.090711,-244.196426,108.604897,-191.603821
439,939177290,-89.035400,-27.009357,-144.781769,-10.127008,9.530405,5.323596,-232.380493,162.936234,-200.006653
440,939193957,-90.952087,-30.479399,-148.930267,-8.012403,10.027461,4.522770,-232.902328,217.374466,-208.190247
441,939210624,-91.992897,-34.027981,-154.057587,-5.851798,12.337566,3.942607,-224.842834,264.739380,-206.030273
442,939227291,-92.166550,-37.589386,-160.081680,-2.943909,14.167283,3.712710,-220.146805,299.881989,-202.680328
443,939243958,-91.483223,-41.092907,-166.911972,0.202242,15.986631,3.670505,-217.106094,322.682159,-199.692749
444,939260625,-89.885818,-44.333153,-174.562241,2.504369,15.607162,4.193412,-213.889694,338.763000,-189.973038
445,939277292,-87.227539,-46.908455,177.028397,4.497977,14.987745,5.445725,-199.565994,348.071625,-162.935806
446,939293959,-83.150673,-48.430073,167.851242,7.840681,14.901490,7.414127,-160.973404,360.970490,-121.709427
447,939310626,-77.026024,-49.079773,157.615341,12.597357,13.036093,9.319021,-93.012337,391.202820,-107.800117
448,939327293,-68.644867,-48.922733,146.738754,15.968946,10.457623,6.763760,11.380885,410.842316,-117.173058
449,939343960,-58.658142,-47.756538,136.544266,15.704779,8.009784,2.985185,143.176193,394.448853,-117.775482
450,939360627,-47.710651,-45.683468,128.024597,10.899703,2.819724,-0.362481,285.699799,354.320831,-110.590233
451,939377294,-36.639496,-42.926174,122.318939,9.545127,1.605083,-3.762472,426.368439,286.556396,-70.681168
452,939393961,-25.491262,-39.585407,119.035934,12.062510,-1.150945,-5.638682,540.293762,247.757874,-23.648804
453,939410628,-14.433454,-36.263905,117.657562,15.066319,-8.830964,-10.126863,614.080750,209.241623,6.502112
454,939427295,-4.280885,-33.674068,118.019402,13.383735,-19.970156,-13.655408,623.168884,149.935516,42.585827
455,939443962,2.670554,-32.034657,120.541122,9.447281,-31.061346,-16.848457,500.756958,95.815674,128.223404
456,939460629,5.503360,-31.018673,124.603050,7.849874,-37.888306,-24.447668,299.007172,74.644180,202.607224
457,939477296,4.188743,-29.767485,127.909554,1.165069,-33.767971,-21.088207,23.128000,88.150551,163.904312
458,939493963,-1.219422,-27.833908,127.553200,-13.716290,-23.553532,-8.440866,-333.194336,114.374756,-21.955591
459,939510630,-8.631695,-25.382702,124.471344,-20.759645,-6.754551,-5.536744,-525.908203,159.669464,-152.436279
460,939527297,-15.378661,-22.943251,119.733871,-9.643568,0.388242,-10.759984,-519.462585,196.062057,-223.619247
461,939543964,-20.270041,-21.481592,113.584534,8.055011,-6.115406,-8.449591,-431.264923,186.957413,-298.713501
462,939560631,-21.434032,-22.005678,106.838943,7.072560,-15.758895,-5.671442,-218.221939,103.327789,-362.682953
463,939577298,-19.834402,-23.738914,101.354347,-5.352856,-15.760594,-5.942733,-30.525585,8.441045,-320.596191
464,939593965,-18.676216,-24.860758,96.521942,-10.089384,-13.162869,-5.996403,-48.373154,22.424059,-271.835480
465,939610632,-19.369339,-25.121120,91.451912,-7.843026,-13.051628,-5.369558,-168.613739,73.879005,-265.966217
466,939627299,-22.080214,-24.345770,87.195412,-5.587895,-12.122670,-4.685149,-267.974274,124.341858,-200.750626
467,939643966,-26.124599,-22.766747,84.425133,-4.108467,-11.282904,-3.328587,-307.564087,147.452026,-100.666298
468,939660633,-31.525156,-20.622896,83.454132,-3.817526,-9.322248,-1.936242,-344.053497,137.555557,14.328678
469,939677300,-38.276093,-17.846045,84.582626,-3.330786,-7.973127,-1.303101,-381.197968,98.824951,147.523758
470,939693967,-45.731472,-14.442840,87.526665,0.396682,-8.321505,-0.646948,-396.527069,36.870705,262.531525
471,939710634,-52.871929,-10.734040,91.164764,3.749132,-8.705432,1.563967,-379.136169,-17.748283,307.363281
472,939727301,-59.163685,-7.081652,95.041466,2.827968,-6.898748,6.005790,-339.802124,-69.411537,309.824890
473,939743968,-63.965576,-3.112831,99.437012,1.954069,-2.979808,9.419189,-263.033142,-118.941406,334.047302
474,939760635,-67.196571,1.745561,104.485336,1.593034,-0.853868,11.994307,-188.642090,-156.627655,390.107483
475,939777302,-69.006622,7.245747,110.045967,3.839251,-1.079278,15.748632,-133.262085,-186.891327,429.642365
476,939793969,-69.500969,12.182602,115.926537,2.258001,1.504219,16.527807,-87.851463,-221.589111,399.560913
477,939810636,-69.702606,16.355577,120.858452,-7.230114,10.243125,10.193281,-83.741585,-182.749878,334.109314
478,939827303,-69.043144,18.606773,126.117981,-7.122407,11.321985,12.057240,-53.977493,-235.209671,232.004532
479,939843970,-65.795746,18.992613,132.966278,-0.772721,4.832810,9.015709,63.496689,-351.282776,170.404358
480,939860637,-62.169312,18.086830,139.653519,3.444109,3.053809,4.086179,91.058098,-366.675751,117.819237
481,939877304,-60.156078,16.591597,145.424866,3.205405,4.065946,3.043959,18.770597,-333.808472,80.675522
482,939893971,-58.675514,14.123753,150.964310,4.050014,7.122384,5.920510,2.018757,-352.218903,35.494747
483,939910638,-57.513710,10.755706,156.255722,4.761865,6.190666,3.107107,2.561097,-370.953064,-7.753807
484,939927305,-57.068142,7.481526,161.380066,5.870286,4.802360,0.711405,-20.683842,-362.571014,-1.307393
485,939943972,-57.085323,4.597383,166.334991,5.227599,5.334779,1.153465,-30.957157,-343.207550,15.355857
486,939960639,-57.229256,1.961293,171.121002,4.305991,4.976152,0.569171,-23.686737,-327.645782,22.508829
487,939977306,-57.708733,-0.479064,175.594330,2.853245,3.459796,-1.900352,-30.835415,-306.005585,20.759611
488,939993973,-59.019447,-2.543890,179.602890,1.235207,2.199652,-3.850842,-70.863716,-270.693390,20.492331
489,940010640,-61.053108,-4.257717,-176.906403,0.398677,2.159650,-3.623397,-108.148872,-233.524338,15.192970
490,940027307,-63.335941,-5.785580,-173.902618,0.359876,3.018617,-2.861135,-119.751442,-202.579254,2.493121
491,940043974,-65.483131,-7.257417,-171.314316,0.561981,3.554407,-2.057184,-109.751129,-178.336884,-13.161656
492,940060641,-67.434547,-8.770984,-169.171661,0.420224,3.639030,-1.756081,-97.721603,-154.001938,-32.578594
493,940077308,-69.202408,-10.196592,-167.224854,0.111232,3.422407,-1.918489,-85.379585,-139.684631,-37.091408
494,940093975,-71.000679,-11.452451,-165.475189,-0.300259,3.069175,-2.037779,-86.731865,-123.616890,-35.933949
495,940110642,-72.974213,-12.467780,-163.945374,-0.559229,3.169753,-1.706586,-97.937904,-105.243721,-30.346367
496,940127309,-75.005592,-13.277983,-162.726807,-0.637836,3.371074,-0.606352,-104.136108,-82.930611,-27.248407
497,940143976,-76.881340,-14.015853,-161.870438,-0.371410,3.451147,0.399589,-98.960915,-60.189438,-31.002300
498,940160643,-78.315170,-14.694904,-161.188431,-0.393074,3.071534,0.950200,-74.412323,-48.469517,-31.462246
499,940177310,-79.228897,-15.328605,-160.683014,-1.352500,2.079593,0.476243,-45.494236,-37.132839,-31.774734
500,940193977,-79.869553,-15.867892,-160.469131,-2.540622,1.293854,-0.125461,-33.509041,-19.020548,-29.759476
501,940210644,-80.468948,-16.306738,-160.658936,-2.928254,0.744501,-0.166603,-37.636444,5.295384,-27.986948
502,940227311,-80.999710,-16.707642,-161.261185,-2.754698,0.871311,0.351521,-40.623890,29.330111,-29.485151
503,940243978,-81.371201,-17.167927,-162.172379,-1.960753,1.180094,0.944658,-36.725018,46.461910,-35.462830
504,940260645,-81.517838,-17.779976,-163.204407,-0.909136,0.939581,1.477379,-25.895905,51.955330,-45.251945
505,940277312,-81.404572,-18.580984,-164.142487,-0.244779,0.661022,1.645583,-9.266922,44.758743,-55.615414
506,940293979,-81.071304,-19.442127,-164.883743,-0.424724,-0.000493,0.881528,7.005741,32.698807,-57.617634
507,940310646,-80.731277,-20.255373,-165.573837,-0.745905,0.037864,0.320345,7.841148,29.751207,-54.484337
508,940327313,-80.505989,-21.010384,-166.354538,-0.466193,0.544197,0.371482,-1.494496,34.879929,-51.982693
509,940343980,-80.085892,-21.677864,-167.501572,-0.501564,2.183983,1.140585,1.654799,55.446030,-50.420784
510,940360647,-78.992905,-22.354349,-169.249542,0.191465,3.706835,1.945461,27.758389,87.260582,-57.704231
511,940377314,-76.826363,-23.134909,-171.451050,0.924093,3.011946,1.623228,80.414597,108.328156,-71.447609
512,940393981,-73.772301,-23.986666,-173.631989,0.308369,0.720852,0.117271,132.425613,102.081558,-80.014709
513,940410648,-70.411354,-24.822868,-175.536331,-1.282091,-0.495217,-1.331636,155.938583,82.610588,-79.883789
514,940427315,-67.394424,-25.555815,-177.395065,-1.877360,-1.701271,-1.676140,135.036209,77.362854,-77.500565
515,940443982,-65.231758,-26.096064,-179.317566,-1.581320,-2.488514,-1.269490,81.005608,81.075279,-71.524254
516,940460649,-63.866756,-26.438736,178.642654,0.365467,-1.249377,0.511035,29.225246,89.281937,-65.851639
517,940477316,-62.482983,-26.956659,176.778198,2.708437,0.077272,1.961103,34.248981,74.183609,-72.955559
518,940493983,-60.540634,-27.949783,175.513901,2.607128,-0.364253,1.509524,83.050041,29.761183,-84.613991
519,940510650,-58.577190,-29.200968,174.355362,-0.276565,-2.051414,0.345495,86.033539,13.610565,-95.790695
520,940527317,-57.013546,-30.432775,172.895569,-1.496304,-2.338063,0.753001,51.739292,23.925760,-103.172531
521,940543984,-55.662994,-31.588892,171.128693,-1.906734,-2.111269,1.539807,27.883497,36.184040,-108.222038
522,940560651,-54.371147,-32.667061,169.290298,-2.228696,-1.745254,2.155927,20.305975,38.461296,-106.680077
523,940577318,-53.238899,-33.564388,167.105865,-3.274568,-0.944241,2.323871,-2.214232,55.804749,-108.383591
524,940593985,-52.184448,-34.442650,164.716141,-3.471156,0.673306,2.515311,-15.467310,61.657185,-114.036545
525,940610652,-51.160728,-35.441341,162.161896,-5.203740,3.392181,2.672490,-24.902821,60.411438,-125.006523
526,940627319,-50.360561,-36.681934,159.339188,-6.054732,9.408903,2.899132,-50.233021,57.987015,-144.327469
527,940643986,-49.356121,-38.501720,155.886642,-5.162656,15.669170,3.575211,-64.650093,54.163902,-189.335663
528,940660653,-47.707649,-41.184937,151.665970,-8.197742,18.923481,2.179377,-61.899456,38.231846,-249.394089
529,940677320,-45.447689,-44.030415,147.007538,-11.241686,19.701324,-0.142316,-52.178467,31.265615,-265.360229
530,940693987,-42.917046,-46.831192,141.831146,-8.668360,17.997286,2.387590,-68.001114,30.681986,-273.338745
531,940710654,-40.363548,-49.984409,135.717896,-1.246112,17.117407,5.817099,-119.728943,19.792686,-307.514130
532,940727321,-36.725414,-53.583752,128.573257,2.934039,17.620333,5.246797,-117.212440,-4.140635,-341.697235
533,940743988,-31.256838,-56.685246,120.402496,6.230574,15.261488,4.482873,-72.933502,1.990572,-336.058380
534,940760655,-24.073429,-58.489185,111.663208,8.287869,12.057687,4.206546,-10.451322,34.160980,-298.894287
535,940777322,-16.746656,-59.371727,102.946129,7.847693,6.997075,3.393921,-7.151268,43.955555,-271.252930
536,940793989,-11.066636,-59.207699,95.707855,7.020466,4.668801,4.988268,-31.255690,62.212471,-212.886154
537,940810656,-8.741876,-57.368015,91.526306,7.763941,4.164011,6.184395,-72.536972,130.750885,-111.002441
538,940827323,-9.733611,-53.034206,90.274323,7.516321,2.959122,3.113018,-119.723946,262.936310,-0.669457
539,940843990,-13.115277,-46.544533,91.856926,2.560057,0.573622,-4.410205,-128.661057,368.900940,137.149368
540,940860657,-17.722383,-38.154659,95.894417,-2.944487,-7.061491,-12.079170,-111.034920,436.787079,306.429230
541,940877324,-23.693110,-28.959455,100.741684,1.942114,-34.171780,-16.897511,-194.880661,429.332062,421.860077
542,940893991,-30.215624,-20.799749,105.554474,14.197824,-47.029457,-22.270819,-267.387299,316.587769,455.496399
543,940910658,-35.817471,-14.470776,110.464355,8.698263,-36.105606,-15.629250,-244.737045,164.253922,442.283875
544,940927325,-44.517632,-8.149292,112.159332,-3.777828,-19.222673,-15.115849,-499.955597,224.625214,320.968201
545,940943992,-56.824997,-2.208118,109.893791,-10.102042,-11.533820,-12.482318,-748.453186,330.229431,190.029419
546,940960659,-67.329712,1.218304,106.431084,-9.671034,-4.473268,-11.700102,-630.236328,279.191650,84.155006
547,940977326,-74.650879,2.739882,103.553268,-2.107528,-0.388474,-7.644567,-431.757050,191.964813,29.856003
548,940993993,-80.029648,2.655290,100.707466,10.890684,-0.515621,0.692026,-313.194122,164.327194,-42.599579
549,941010660,-82.411888,0.611894,98.458748,6.684081,-11.800496,8.381884,-137.586929,113.564590,-142.006226
550,941027327,-81.992905,-2.787432,97.701439,-2.725161,-13.764658,-2.619051,25.749989,16.315237,-208.531982
551,941043994,-79.695824,-6.342380,97.308044,-4.661705,-14.522264,-6.567146,137.366959,-11.761872,-214.668427
552,941060661,-76.036209,-10.413371,96.607666,-3.677841,-15.999655,-7.268344,214.799683,-11.757609,-247.949509
553,941077328,-71.284462,-13.884346,95.919083,-3.057403,-16.944752,-4.986225,277.739319,-20.918184,-211.679504
554,941093995,-65.976425,-16.550539,95.357788,-2.404352,-15.752308,-2.963020,311.005249,-29.227861,-161.296600
555,941110662,-60.436150,-18.476461,94.936287,-2.551963,-13.442784,-0.750274,326.171783,-31.767788,-114.534325
556,941127329,-55.026981,-19.439434,94.340012,-2.460387,-9.148020,-1.164437,314.314209,-3.507490,-67.414520
557,941143996,-50.570000,-18.997650,93.182961,-1.799829,-6.010410,0.223301,245.950668,66.941895,-18.994667
558,941160663,-46.713234,-16.822351,91.908653,-0.935406,-6.418253,2.602898,209.250229,139.527939,49.433670
559,941177330,-42.794483,-13.392304,90.946648,-0.584834,-7.194941,3.322547,221.406845,184.032990,104.894150
560,941193997,-38.529549,-9.099909,90.905960,-2.438051,-5.007473,2.997936,256.696472,195.567490,165.592529
561,941210664,-35.241657,-3.588070,91.740929,-1.627365,-1.586887,2.255024,204.044617,233.194870,237.976013
562,941227331,-34.551865,3.863220,93.386711,-1.445278,0.764138,1.616745,42.457073,308.688141,336.406860
563,941243998,-36.008728,13.161164,95.791100,4.555257,-0.588369,1.493993,-107.237076,371.455444,438.366699
564,941260665,-37.993061,23.292961,98.909554,6.230937,-2.857291,5.207623,-175.997116,376.894470,507.536621
565,941277332,-38.984016,33.092178,103.436386,4.413217,-1.630442,10.832453,-186.403473,309.484619,552.873840
566,941293999,-37.890919,41.667206,109.690521,6.319189,0.739270,15.396734,-161.327560,215.668411,552.824341
567,941310666,-33.671215,48.306160,117.806870,9.184979,4.964143,17.847382,-90.455505,119.767311,511.395844
568,941327333,-26.937733,52.708008,127.216225,7.703317,8.930858,16.049225,-31.001669,44.980450,442.253510
569,941344000,-18.836411,55.008835,137.217133,4.214691,11.357037,11.169003,2.306817,-12.045784,378.857422
570,941360667,-10.987813,55.655712,146.602188,2.274153,12.223668,5.444160,8.758121,-46.218418,318.852417
571,941377334,-4.521978,55.125793,154.406235,0.476302,11.696921,0.887475,3.695982,-68.528938,258.759552
572,941394001,-0.151155,53.932800,159.976456,-1.661812,10.582177,-2.685894,-8.671746,-80.547089,190.509995
573,941410668,2.041298,52.535740,163.330353,-3.063184,10.293312,-4.829357,-28.319010,-82.961609,121.536049
574,941427335,2.010803,51.095695,164.270874,-3.093479,10.349991,-5.481285,-44.812508,-86.251640,37.687531
575,941444002,0.321964,49.409733,162.921478,-1.639753,9.421541,-5.255984,-37.662350,-103.297096,-49.907185
576,941460669,-2.477801,47.258419,159.729980,-0.254825,7.838532,-3.067187,-23.457264,-127.712288,-129.881454
577,941477336,-5.880011,44.501587,155.342560,1.455516,6.496179,-0.103666,-13.600575,-152.595901,-194.958496
578,941494003,-9.122546,41.116440,150.731277,4.118339,4.725202,2.796961,-4.912823,-175.814606,-227.875824
579,941510670,-11.624315,37.257458,146.721100,6.981587,1.246225,5.187633,3.561607,-195.137573,-225.268021
580,941527337,-12.968417,33.011185,143.898407,5.746851,-3.371955,4.259303,18.412012,-220.473038,-189.708862
581,941544004,-13.699783,28.613674,142.097092,3.056517,-3.884511,1.170320,13.049482,-236.426376,-151.312515
582,941560671,-14.664168,24.533642,140.724060,1.465557,-2.904943,-0.380241,-19.436382,-220.410187,-131.572220
583,941577338,-15.922606,20.826633,139.568176,0.311429,-2.531988,-0.703141,-47.200081,-198.803635,-120.554428
584,941594005,-17.361486,17.449146,138.601364,-1.159198,-2.737443,-1.853775,-65.755806,-179.609909,-110.722603
585,941610672,-19.151711,14.610809,137.685944,-2.159773,-2.440683,-2.785637,-90.703499,-146.337982,-103.665215
586,941627339,-21.184202,12.381612,136.759476,-1.860938,-1.281179,-3.171499,-107.453285,-108.058563,-97.042397
587,941644006,-23.221338,10.772747,135.847000,-1.370377,-0.587701,-2.999769,-109.734650,-70.243034,-86.332214
588,941660673,-25.164696,9.714834,134.953232,-1.394502,-0.180425,-2.681159,-105.568268,-37.404961,-74.342453
589,941677340,-26.954285,9.133787,134.132431,-1.466580,0.459533,-2.390392,-97.821785,-11.097513,-59.158051
590,941694007,-28.505499,8.903263,133.436066,-1.531950,1.035923,-1.916543,-85.037270,5.844205,-43.158466
591,941710674,-29.847076,8.894396,132.768082,-1.314601,1.265252,-1.325574,-72.809570,17.735847,-35.025505
592,941727341,-30.844362,8.916480,132.097565,-1.002929,1.243629,-0.843157,-52.124153,20.129612,-33.820259
593,941744008,-31.373915,8.796848,131.447983,-0.867915,0.931701,-0.465509,-24.286703,12.664388,-36.863861
594,941760675,-31.437551,8.470326,130.854721,-1.508539,1.038702,-1.322416,3.010387,0.539746,-40.426762
595,941777342,-31.310698,8.050768,130.305984,-2.199057,0.808691,-1.899506,13.826012,-5.598948,-41.100277
596,941794009,-31.319382,7.694870,129.831955,-2.779747,0.596760,-2.029832,4.854749,-4.661442,-35.336658
597,941810676,-31.749001,7.550645,129.376236,-2.639927,0.780932,-2.056689,-20.677757,5.751132,-27.792072
598,941827343,-32.659439,7.635497,128.898163,-2.217016,0.910244,-1.788054,-49.371193,18.420910,-21.500902
599,941844010,-33.868496,7.879903,128.589981,-2.176904,0.768251,-1.419194,-68.587265,21.282131,-7.427679
600,941860677,-35.363819,8.264596,128.497879,-1.870343,0.507143,-0.889285,-87.489899,21.083771,8.465375
601,941877344,-37.105572,8.699142,128.456848,-0.611655,0.388960,-0.216063,-102.694252,21.455420,13.310131
602,941894011,-38.818604,9.017737,128.396515,0.176834,0.346895,0.139890,-100.777718,16.261469,8.802301
603,941910678,-40.394028,9.235792,128.360229,-0.775084,0.766388,-0.214282,-92.730316,10.444291,6.543472
604,941927345,-42.176304,9.451866,128.219437,-1.749799,0.697597,0.419638,-104.117043,14.236280,2.159267
605,941944012,-44.254051,9.707680,127.928841,-1.045437,0.164597,1.663313,-120.319397,21.959764,-2.144216
606,941960679,-46.134323,9.707928,127.522736,-0.171191,-0.156233,2.726192,-107.267784,16.056509,-17.038368
607,941977346,-47.497826,9.400647,127.106804,-0.012173,0.008419,2.485909,-76.229744,4.330909,-30.407248
608,941994013,-48.517311,8.898356,126.615410,-0.239321,0.285992,1.751902,-55.042522,0.473504,-41.994453
609,942010680,-49.340683,8.301198,126.009056,-0.089185,0.282505,1.602311,-42.524982,2.583023,-50.765327
610,942027347,-49.940136,7.630167,125.335815,0.111385,0.182436,1.421322,-28.930431,3.418288,-56.705597
611,942044014,-50.238968,6.888250,124.650558,0.579270,0.429356,1.066281,-11.295864,1.731461,-60.433323
612,942060681,-50.286560,6.107893,123.951721,0.439484,0.402402,0.216331,3.331637,1.108783,-62.754501
613,942077348,-50.255989,5.358024,123.251923,-0.043754,0.180916,-0.423985,7.473586,2.378780,-61.422752
614,942094015,-50.285023,4.700603,122.543404,-0.306497,0.278606,-0.827706,3.430548,6.363199,-57.522099
615,942110682,-50.402351,4.167654,121.804199,-0.316128,0.019252,-0.859608,-2.164988,12.642926,-52.954559
616,942127349,-50.526066,3.722611,121.070854,-0.237478,-0.182563,-0.678518,-2.952288,15.864248,-48.652092
617,942144016,-50.555202,3.311447,120.408066,-0.296593,-0.222016,-0.409030,2.132972,13.974813,-44.388802
618,942160683,-50.515762,2.920265,119.827309,-0.466943,-0.089183,-0.334087,5.698330,10.948236,-40.350128
619,942177350,-50.439327,2.577138,119.312286,-0.564192,-0.068227,-0.163261,7.505551,9.715042,-35.639069
620,942194017,-50.359749,2.300484,118.807220,-0.446904,0.036993,-0.058638,7.496211,11.751677,-32.200974
621,942210684,-50.264935,2.057540,118.277168,-0.437543,-0.061046,0.331867,8.330190,14.157002,-31.626293
622,942227351,-50.062218,1.768719,117.794670,-0.468738,-0.120241,0.560705,14.557040,10.124729,-31.953238
623,942244018,-49.767742,1.420407,117.374275,-0.433688,-0.073100,0.441332,19.795612,4.841343,-32.335876
624,942260685,-49.502918,1.010073,117.000252,-0.302527,-0.119299,0.185128,17.786541,0.158268,-33.399895
625,942277352,-49.383541,0.606787,116.623146,-0.010602,0.097067,-0.200152,8.901314,0.463201,-33.205090
626,942294019,-49.424419,0.214716,116.226364,0.273321,0.027546,0.005708,-0.861499,1.778086,-33.463661
627,942310686,-49.610199,-0.149378,115.825035,0.448369,0.071237,-0.084913,-9.710787,3.138151,-32.358677
628,942327353,-49.903065,-0.542412,115.428986,0.703878,0.018729,0.307196,-16.290062,1.910864,-33.465034
629,942344020,-50.257172,-0.966907,115.034935,0.773190,-0.174252,0.553331,-20.127031,0.795516,-34.819710
630,942360687,-50.578060,-1.462414,114.638672,0.809093,-0.371980,0.742595,-18.323338,-1.616812,-38.179710
631,942377354,-50.818085,-2.054507,114.213257,0.777205,-0.489818,0.677581,-13.747232,-3.759499,-43.770443
632,942394021,-50.956707,-2.737981,113.753510,0.513544,-0.490493,0.516191,-8.028153,-5.491501,-49.327702
633,942410688,-51.048252,-3.458888,113.241737,0.494148,-0.207213,0.293557,-5.709731,-4.397156,-53.039021
634,942427355,-51.152058,-4.171476,112.635101,0.585779,-0.094937,0.074286,-7.203397,0.406344,-56.209553
635,942444022,-51.268990,-4.882078,111.947639,0.552478,-0.226727,0.043857,-8.822200,4.335856,-59.129044
636,942460689,-51.370613,-5.603435,111.241882,0.380149,-0.171797,-0.003159,-8.512852,4.857660,-60.277794
637,942477356,-51.483894,-6.320716,110.528625,0.248251,-0.037434,-0.212054,-9.788701,5.435938,-60.327080
638,942494023,-51.632832,-7.030738,109.783409,0.375463,0.008708,-0.346591,-12.677464,7.287202,-61.117142
639,942510690,-51.781910,-7.741591,109.023407,0.250346,0.079965,-0.389656,-13.347105,8.053802,-61.640015
640,942527357,-51.925156,-8.436874,108.246300,0.365619,0.046301,-0.218046,-13.694614,9.527081,-61.462498
641,942544024,-52.025253,-9.114283,107.458984,0.388791,-0.005422,-0.271455,-11.748620,10.732146,-60.919769
642,942560691,-52.134712,-9.746962,106.634628,0.273800,-0.070022,-0.373803,-13.204453,14.153242,-60.076359
643,942577358,-52.269833,-10.305931,105.770325,0.290729,-0.149174,-0.315000,-15.666992,18.785656,-57.941990