sep=,
DeviceTag:,DOT10
FirmwareVersion:,3.0.0
AppVersion:,2023.6.0
SyncStatus:,Synced
OutputRate:,60Hz
FilterProfile:,Dynamic
Measurement Mode:,Custom modes - custom mode1
StartTime: ,2026-06-02_18:26:51_663 GMT+2
© Movella Technologies B. V. 2005-2026

PacketCounter,SampleTimeFine,Euler_X,Euler_Y,Euler_Z,FreeAcc_X,FreeAcc_Y,FreeAcc_Z,Gyr_X,Gyr_Y,Gyr_Z
1,2476941378,68.610924,42.662422,-56.021019,-3.645874,3.028380,0.566670,37.347324,-22.462500,-15.521906
2,2476958045,68.691727,42.730690,-56.782101,-3.524169,3.260819,0.751274,37.195126,-30.847225,-16.163149
3,2476974712,68.538857,42.751549,-57.692089,-3.745008,3.241366,1.030810,29.269413,-37.966209,-15.886650
4,2476991379,68.093765,42.727646,-58.764709,-4.135890,3.046588,1.004196,18.362036,-45.540989,-16.204870
5,2477008046,67.419189,42.670555,-60.021469,-4.382029,2.942973,0.982343,12.066175,-53.683334,-17.849827
6,2477024713,66.571129,42.569530,-61.453556,-4.289537,2.988211,1.294723,8.715575,-61.663113,-19.144665
7,2477041380,65.597557,42.407387,-63.053467,-4.073029,3.181738,1.404737,7.856361,-69.755310,-19.789112
8,2477058047,64.467987,42.174915,-64.799988,-3.855036,3.218481,1.553553,4.182380,-77.261299,-20.032169
9,2477074714,63.075935,41.890621,-66.701645,-3.951429,3.277076,2.218299,-5.668167,-84.667282,-22.082788
10,2477091381,61.302818,41.558067,-68.787704,-4.164801,3.436302,2.956106,-21.605892,-93.043831,-25.838881
11,2477108048,59.094784,41.159332,-71.074394,-4.338481,3.785110,3.567200,-40.323807,-102.369324,-30.299065
12,2477124715,56.411053,40.656124,-73.516365,-3.952350,4.424134,4.162276,-63.552444,-110.886246,-33.399639
13,2477141382,53.251408,39.982784,-76.006248,-3.154933,5.221859,4.791082,-91.361053,-117.523735,-32.410069
14,2477158049,49.604897,39.128132,-78.406372,-2.728483,5.966641,5.319345,-125.504143,-119.951538,-28.945044
15,2477174716,45.497715,38.128071,-80.650940,-2.555606,7.002728,6.331892,-160.759384,-119.341522,-26.524557
16,2477191383,41.079288,36.959583,-82.633614,-2.676606,7.869243,5.766965,-190.993301,-116.970901,-20.360678
17,2477208050,36.745296,35.668171,-84.164497,-3.271259,8.064300,4.817552,-204.010483,-108.101112,-8.677897
18,2477224717,32.943825,34.279510,-85.017532,-4.286809,8.674435,3.758471,-197.102661,-93.722198,13.442893
19,2477241384,30.403116,32.762634,-84.925728,-7.086618,9.412644,1.521653,-153.821518,-76.481888,51.970276
20,2477258051,29.676174,30.966162,-83.598076,-7.547888,8.381058,-0.988544,-83.988617,-60.930191,112.825340
21,2477274718,30.476851,28.867392,-80.602264,-3.800587,3.268846,-3.845451,-39.934345,-32.414127,198.241394
22,2477291385,32.064079,26.541309,-75.865479,-0.194963,-3.812109,-5.887979,-35.293911,9.812402,287.806641
23,2477308052,33.764336,23.863266,-69.747444,4.187443,-11.004865,-7.614283,-52.789112,44.136642,366.368195
24,2477324719,35.055847,20.997852,-62.936970,12.769493,-20.677071,-12.036785,-76.990623,70.241402,408.933441
25,2477341386,35.773586,18.687286,-56.659069,24.232836,-29.548683,-11.155976,-83.368599,91.015121,369.189209
26,2477358053,36.466209,17.868574,-52.516060,24.292610,-30.620098,-10.955988,-34.995491,98.211884,219.629654
27,2477374720,38.688446,18.664331,-51.254715,16.757710,-21.983732,-13.464713,111.025246,80.596596,27.721712
28,2477391387,42.461353,20.660271,-52.517712,10.348575,-16.124653,-16.010679,253.266479,43.610092,-132.345200
29,2477408054,47.454933,23.208179,-55.655212,8.208838,-11.143346,-11.124598,371.255096,-16.118294,-231.976456
30,2477424721,52.590240,25.635305,-59.412769,9.868703,-9.747878,-5.087801,402.611115,-64.646355,-243.950623
31,2477441388,56.834721,27.710188,-63.103584,7.527596,-8.763189,-2.893890,355.365784,-90.501854,-216.443085
32,2477458055,59.802711,29.407820,-66.474754,4.933021,-7.169758,-1.998586,276.083710,-98.568413,-180.524292
33,2477474722,61.504501,30.778353,-69.478615,2.998366,-5.482919,-0.607775,193.787216,-96.493362,-148.662003
34,2477491389,61.964558,31.886345,-72.096725,1.663177,-3.593744,2.074286,110.602188,-87.563789,-122.669014
35,2477508056,61.236794,32.761356,-74.260902,0.634385,-1.847480,2.728017,27.080601,-72.425491,-98.953438
36,2477524723,60.048676,33.460167,-75.991814,-0.123102,0.167932,3.207374,-13.249017,-56.138439,-79.768112
37,2477541390,58.768600,34.029106,-77.236382,-0.590639,2.150742,4.126038,-34.019196,-36.959332,-61.544617
38,2477558057,57.539326,34.498219,-78.009834,-1.037871,4.188741,4.087049,-46.323181,-18.620176,-44.680527
39,2477574724,56.446232,34.815578,-78.538719,-2.163334,5.776243,4.062436,-46.236698,-12.421032,-30.683762
40,2477591391,55.714481,34.947369,-78.999680,-3.563622,6.113389,3.118379,-26.775885,-15.335587,-19.676756
41,2477608058,55.599644,34.921516,-79.492973,-4.948489,6.352249,3.723566,11.380009,-21.848837,-12.816022
42,2477624725,56.296032,34.782223,-80.000748,-5.760979,7.972936,4.471335,60.530830,-26.351637,-7.436071
43,2477641392,57.631599,34.570660,-80.636681,-6.128701,10.011454,3.873031,103.197014,-34.203762,-6.774432
44,2477658059,59.255089,34.378181,-81.549873,-6.388330,10.650784,1.874329,129.796219,-45.542183,-14.050588
45,2477674726,60.953468,34.360191,-82.758987,-6.606930,10.081688,0.498319,144.244461,-53.478336,-29.104713
46,2477691393,62.388405,34.572113,-84.184845,-6.892403,9.098319,1.485996,135.919968,-57.095291,-44.803989
47,2477708060,63.276608,34.933189,-85.735863,-7.103265,8.965914,2.098120,107.771690,-59.180866,-54.277569
48,2477724727,63.385174,35.324009,-87.298515,-6.715644,7.496907,2.254652,61.924484,-59.049561,-55.419506
49,2477741394,62.586330,35.722569,-88.741287,-7.222321,6.294418,2.075437,3.850505,-52.950768,-53.318703
50,2477758061,61.023033,36.128750,-90.013885,-7.818202,6.170557,2.297462,-47.484863,-44.024277,-50.681126
51,2477774728,58.881908,36.488483,-91.057373,-7.277933,6.778603,3.587729,-89.857918,-33.905838,-43.911995
52,2477791395,56.296047,36.722149,-91.821175,-7.215997,7.982076,4.981709,-126.267494,-24.589289,-31.496368
53,2477808062,53.500771,36.762226,-92.374443,-8.794388,9.659411,6.162632,-146.281815,-21.438055,-17.183416
54,2477824729,51.015347,36.591747,-92.800674,-10.090183,12.853894,6.974653,-132.250244,-23.552082,-4.354500
55,2477841396,49.271584,36.185699,-92.834221,-9.107497,14.985212,7.419516,-101.809433,-17.946911,17.812819
56,2477858063,48.556473,35.515774,-92.027176,-7.015288,16.273041,6.972376,-69.622871,2.048542,56.279125
57,2477874730,48.937874,34.412292,-89.822197,-4.567205,15.208998,4.607635,-51.286137,36.705093,121.486786
58,2477891397,49.881962,32.589283,-85.705048,-1.172456,9.518106,0.037036,-78.092628,84.095970,217.306046
59,2477908064,50.690781,29.864651,-79.685005,1.798494,-1.920699,-5.463513,-137.191101,132.020523,323.255890
60,2477924731,52.147697,26.078924,-72.716324,6.124185,-19.532120,-7.195833,-107.304794,145.986145,407.866241
61,2477941398,54.015953,21.587837,-66.020668,18.115831,-35.493370,-6.961709,-48.938614,130.969528,436.097290
62,2477958065,55.647999,17.757154,-60.690849,27.753944,-39.582630,-9.120819,-8.381904,112.787247,361.241730
63,2477974732,56.799030,16.675938,-57.918503,23.446661,-34.009998,-12.013793,21.266344,94.967476,142.130524
64,2477991399,58.084660,18.199566,-57.743526,13.115683,-22.635708,-12.829657,75.438034,56.677898,-71.889275
65,2478008066,59.525528,21.594425,-60.037781,7.997364,-15.893924,-11.524005,134.722717,-6.170188,-241.577484
66,2478024733,61.214096,25.301214,-63.585655,8.031713,-13.498158,-6.520668,187.413925,-60.762703,-290.199036
67,2478041400,62.579117,28.544031,-67.258385,6.872077,-13.214928,-4.164054,183.076874,-82.609901,-264.542206
68,2478058067,63.353741,31.263620,-70.739563,2.780807,-9.648473,-5.162178,152.011658,-88.041534,-228.035355
69,2478074734,63.620564,33.453800,-74.023819,0.827796,-6.481916,-4.745292,122.885704,-91.209473,-192.316177
70,2478091401,63.246937,35.192677,-76.922890,0.098052,-4.469958,-3.145552,77.064178,-82.731323,-157.992554
71,2478108068,62.552643,36.426910,-79.345421,-1.326278,-1.731806,-1.445873,44.783886,-72.103508,-120.061104
72,2478124735,61.817673,37.075283,-81.262733,-1.760759,0.742426,-0.085730,26.123619,-64.275406,-77.854790
73,2478141402,61.229797,37.226273,-82.621933,-1.252570,3.100948,1.841734,15.367135,-53.727039,-39.381657
74,2478158069,60.907360,37.011028,-83.262947,-0.810797,5.114898,2.340705,5.253232,-34.009686,-3.940659
75,2478174736,60.836685,36.657875,-83.180466,-0.199167,6.886466,3.572797,-5.818908,-7.783803,20.055130
76,2478191403,60.740025,36.217003,-82.590019,-1.304164,8.012922,4.038485,-25.456535,11.029852,36.639217
77,2478208070,60.450577,35.732460,-81.878548,-2.937438,7.536790,4.472656,-41.046272,14.864664,41.957603
78,2478224737,60.068638,35.230835,-81.204613,-3.565718,6.442665,4.657558,-44.990513,12.698513,42.164429
79,2478241404,59.740406,34.760242,-80.524155,-3.572674,6.231250,5.210000,-41.701588,13.809012,40.922508
80,2478258071,59.529018,34.371117,-79.758659,-3.516913,6.832374,4.366241,-37.324993,19.855484,39.009396
81,2478274738,59.484924,34.129616,-78.963242,-3.845423,7.398284,2.265497,-28.085951,25.655790,32.271133
82,2478291405,59.528629,34.116531,-78.258415,-4.450485,7.272859,1.652210,-19.670992,28.772743,18.230494
83,2478308072,59.599323,34.348312,-77.728157,-5.632102,6.857645,2.293701,-12.224280,28.723326,1.150366
84,2478324739,59.666157,34.773991,-77.479797,-6.435372,7.239598,2.466908,-3.000856,22.491770,-15.995277
85,2478341406,59.556831,35.331947,-77.618256,-6.472336,7.878423,1.966213,-0.336924,10.054119,-32.455658
86,2478358073,59.093391,35.970329,-78.235222,-7.313314,8.673286,1.052677,-4.772404,-7.349000,-48.401695
87,2478374740,58.188732,36.626980,-79.461479,-8.747351,9.158025,1.097700,-9.253258,-31.157951,-64.586403
88,2478391407,56.962551,37.205830,-81.338722,-9.481386,10.120856,1.858194,-4.426368,-58.424942,-77.658134
89,2478408074,55.522388,37.568840,-83.667465,-8.967240,10.650679,2.496593,-0.061857,-81.231613,-79.824600
90,2478424741,53.941811,37.625374,-86.172035,-7.753077,11.131155,3.326446,-1.626578,-96.292267,-71.519867
91,2478441408,52.235321,37.340420,-88.586212,-7.175810,11.989960,3.722930,-12.702432,-103.216843,-55.341156
92,2478458075,50.422993,36.771362,-90.749504,-8.214556,13.443584,4.696375,-28.964790,-103.264977,-38.027039
93,2478474742,48.795643,35.872082,-92.473976,-8.676779,15.043005,6.041512,-34.778263,-99.526421,-12.859519
94,2478491409,47.837955,34.537415,-93.282585,-7.543386,16.939924,4.505504,-27.897142,-83.950470,33.533905
95,2478508076,47.593529,32.747375,-92.517601,-3.665182,14.729112,2.942652,-38.490181,-45.102966,105.291130
96,2478524743,47.493069,30.559927,-89.610344,-1.864920,10.926088,0.360125,-95.965332,19.832058,197.191864
97,2478541410,46.813110,27.963001,-84.535553,-0.421048,4.057001,-1.345943,-188.026306,87.701584,294.987946
98,2478558077,45.426208,24.782719,-77.769005,1.760865,-5.381662,-4.155802,-261.927887,128.897049,389.731262
99,2478574744,44.342899,20.761765,-69.958000,9.310635,-17.680244,-9.902852,-244.812210,133.111801,476.384827
100,2478591411,43.131199,15.859010,-62.274525,21.576624,-34.681160,-9.311863,-215.968979,89.248474,519.495117
101,2478608078,42.111668,11.670180,-56.425884,28.062462,-45.252563,-6.990715,-143.167938,44.921894,420.889984
102,2478624745,42.744236,10.060531,-54.452347,23.707226,-37.313301,-4.184324,17.061367,6.135061,150.879211
103,2478641412,44.958397,10.801765,-55.410618,12.416769,-24.497669,-14.134871,144.697784,-8.073380,-71.786392
104,2478658079,48.515022,13.377591,-59.266254,5.139628,-16.212357,-15.649117,263.188843,-59.794804,-267.846649
105,2478674746,52.941563,16.294462,-64.200386,11.458924,-14.427101,-6.126172,342.641388,-111.801399,-316.968750
106,2478691413,56.598106,18.839987,-68.858719,9.752880,-15.826551,-0.744856,305.036621,-130.547272,-278.814728
107,2478708080,59.242023,20.990013,-73.036552,4.159436,-12.117678,-2.427070,245.345535,-132.133804,-234.839798
108,2478724747,60.878910,22.859781,-76.735847,2.290674,-8.634359,-2.504694,182.443268,-123.364174,-200.363144
109,2478741414,61.262119,24.622671,-79.856995,1.664618,-5.596601,-1.210297,99.761703,-99.780251,-175.893295
110,2478758081,60.686737,26.249771,-82.239891,0.243000,-2.342522,-0.271705,28.259495,-66.437729,-148.421112
111,2478774748,59.811539,27.594221,-83.836838,-0.909246,0.903215,0.963467,-7.758867,-35.052212,-112.849060
112,2478791415,59.091896,28.632015,-84.561752,-0.579712,4.149698,1.442015,-21.319263,-2.301067,-73.541260
113,2478808082,58.710400,29.519081,-84.361519,-0.410159,5.884723,1.313995,-27.365807,35.566837,-40.555241
114,2478824749,58.546444,30.404058,-83.358429,-0.795087,7.552252,1.769803,-38.528046,71.237106,-18.577280
115,2478841416,58.526691,31.280235,-81.858437,-2.023585,8.570817,3.132983,-45.958633,92.420387,-4.871603
116,2478858083,58.679295,32.130405,-80.084015,-3.039418,8.543850,2.885470,-45.419403,102.942772,3.303974
117,2478874750,59.107876,32.975349,-78.158455,-3.420164,7.239554,3.118573,-35.064785,108.613480,6.584976
118,2478891417,59.852806,33.849014,-76.118935,-4.066785,7.209562,3.820537,-21.297853,113.651367,6.417918
119,2478908084,60.810474,34.766262,-74.089867,-4.019559,7.962102,4.125284,-9.758834,113.647263,1.679649
120,2478924751,61.807781,35.848515,-72.152290,-3.726305,7.837154,2.435750,-5.944084,113.413971,-11.671001
121,2478941418,62.750977,37.196732,-70.336166,-3.893153,6.895937,1.904655,-6.847625,114.152084,-31.106779
122,2478958085,63.527966,38.778645,-68.717163,-5.339067,5.804865,2.411983,-11.753589,110.186249,-50.295437
123,2478974752,64.127480,40.413422,-67.535889,-6.896281,5.720429,2.875565,-7.777805,91.273483,-64.135086
124,2478991419,64.423477,41.896519,-67.029770,-7.818577,6.000459,3.192038,-0.787358,58.217072,-70.417336
125,2479008086,64.183395,43.054077,-67.326096,-8.646328,6.183465,3.792077,-0.951439,17.291430,-68.422104
126,2479024753,63.300411,43.671047,-68.495834,-8.962627,6.685481,4.205059,-3.334142,-30.390015,-55.895607
127,2479041420,61.608124,43.531841,-70.630417,-9.274360,7.091359,5.003604,-11.735906,-87.103775,-35.585087
128,2479058087,59.163940,42.536774,-73.696716,-10.563497,7.877381,5.016387,-19.591486,-147.413010,-14.631413
129,2479074754,56.555046,40.663979,-77.396851,-11.232802,9.619313,4.522222,-7.585046,-201.336349,6.746289
130,2479091421,54.288807,37.922287,-81.259972,-9.368185,12.210536,3.943384,12.406105,-242.034424,33.561008
131,2479108088,52.416492,34.444244,-84.824532,-6.504408,14.555288,2.175901,15.553411,-264.061462,64.331985
132,2479124755,50.737366,30.472906,-87.868866,-4.834454,15.726822,-0.035879,-1.069149,-269.864349,90.870232
133,2479141422,48.966156,26.213387,-90.398613,-4.370577,16.102928,-1.292809,-32.540520,-267.973175,109.228691
134,2479158089,46.872272,21.793196,-92.300804,-3.776668,15.628689,-1.169456,-77.506477,-256.246735,127.015373
135,2479174756,44.541077,17.232542,-93.144058,-2.430386,14.074877,-2.564905,-121.258003,-226.396667,162.661469
136,2479191423,41.948566,12.641849,-92.362221,-0.602163,10.066944,-6.657895,-165.914764,-170.798279,221.861359
137,2479208090,38.486134,8.385994,-89.542450,1.839057,4.601404,-10.268417,-236.848007,-88.786003,292.057709
138,2479224757,32.811409,4.795365,-84.616180,4.803779,-0.114720,-10.789579,-372.482544,-5.107002,364.383179
139,2479241424,24.477304,1.820912,-78.138496,5.123782,-8.364220,-10.333894,-520.268982,28.250799,426.475037
140,2479258091,14.899648,-0.601267,-71.130516,10.330058,-23.983397,-2.233294,-576.818542,3.654805,445.312347
141,2479274758,5.761761,-2.646379,-65.150543,21.671997,-33.734428,7.331198,-536.076599,-57.641518,375.136902
142,2479291425,-0.356553,-4.114682,-61.616497,29.073503,-39.270023,7.175329,-353.021759,-79.212563,215.548859
143,2479308092,-2.012252,-4.301000,-61.141388,17.414656,-37.134354,-1.583130,-95.836823,-12.810470,28.047857
144,2479324759,0.456300,-3.364559,-63.760124,2.079067,-31.833347,-4.291476,139.000153,57.375599,-156.152420
145,2479341426,6.889609,-2.017601,-68.143906,0.386398,-18.852713,-4.788084,374.888611,62.967331,-267.669342
146,2479358093,15.986877,-0.390531,-72.343483,5.430141,-11.867081,-3.463335,541.709473,44.931995,-266.741547
147,2479374760,25.734730,1.348397,-75.978340,3.821444,-9.464574,-3.660192,587.881958,19.056791,-241.463165
148,2479391427,35.035976,3.194265,-79.192535,1.350173,-5.830987,-4.859954,566.932983,-2.722964,-222.779434
149,2479408094,43.200508,5.290478,-82.007774,1.788574,-2.437156,-4.872809,503.611481,-9.513380,-210.564514
150,2479424761,49.851974,7.688175,-84.264336,2.703505,-0.035409,-3.818322,415.661865,0.534026,-197.441559
151,2479441428,54.749233,10.441657,-85.772881,3.077424,0.638081,-1.516873,309.390076,29.465229,-185.834824
152,2479458095,58.070919,13.541342,-86.533714,1.485788,2.418318,-1.363645,210.088562,64.835449,-180.068604
153,2479474762,60.389359,16.842207,-86.709099,-0.008241,4.431942,-1.842909,143.175476,91.710106,-175.794189
154,2479491429,62.085560,20.348049,-86.327888,0.027981,5.431247,-1.564296,95.793182,119.323090,-174.372849
155,2479508096,63.579849,23.985064,-85.375076,-0.576711,6.378687,-2.004144,69.407181,145.817535,-170.362823
156,2479524763,65.124458,27.543827,-84.060249,-1.949748,7.318351,-1.099929,59.707767,155.529541,-162.105759
157,2479541430,66.786728,30.873264,-82.592896,-2.885468,7.062967,-0.679452,58.106926,150.612946,-151.471466
158,2479558097,68.566399,33.941746,-81.101433,-3.388312,5.833060,0.438667,60.167610,138.848267,-141.944702
159,2479574764,70.492760,36.749599,-79.596603,-4.604987,5.694138,2.399664,64.711334,126.932320,-132.390366
160,2479591431,72.459694,39.240795,-78.143654,-5.153008,6.603187,3.560642,65.732689,111.639679,-120.195755
161,2479608098,74.143616,41.411518,-76.895187,-6.306584,8.143605,5.516086,53.961159,91.132568,-108.613106
162,2479624765,75.352486,43.139065,-76.009598,-7.156525,9.385526,6.559582,38.212009,64.205681,-89.902069
163,2479641432,75.966003,44.383663,-75.589211,-7.863750,8.923541,7.448727,20.806652,35.150406,-68.043884
164,2479658099,75.710167,45.055820,-75.806671,-8.375340,8.641896,7.612303,-4.716531,-0.114810,-41.541851
165,2479674766,74.267197,45.154915,-76.690414,-8.308723,8.220829,7.664122,-47.544548,-35.597359,-15.567999
166,2479691433,71.652351,44.714024,-78.059959,-7.591470,8.411797,7.094082,-97.363342,-64.356285,8.147882
167,2479708100,67.973244,43.774734,-79.727997,-7.082552,9.010781,6.148836,-149.403198,-87.732758,28.092789
168,2479724767,63.447247,42.351440,-81.571228,-6.771709,10.215569,5.184080,-194.500961,-109.782196,44.576302
169,2479741434,58.317310,40.469303,-83.520119,-6.315535,11.820226,4.411159,-228.870987,-132.598419,55.993736
170,2479758101,52.880703,38.115524,-85.506622,-5.159615,13.271222,3.706893,-249.094238,-156.969742,64.461769
171,2479774768,47.327324,35.337856,-87.407227,-3.299879,14.246026,3.392831,-263.349731,-178.135788,69.324371
172,2479791435,41.768467,32.154469,-89.067459,-1.562752,14.380481,2.600887,-276.496887,-195.410797,75.073257
173,2479808102,36.338146,28.608837,-90.349831,-0.261015,13.351655,1.614429,-285.186401,-208.275513,82.627243
174,2479824769,31.364424,24.739147,-91.034431,-0.184750,12.112962,-1.679878,-278.253571,-214.590637,98.994423
175,2479841436,27.086554,20.694759,-90.972153,-0.672905,9.171451,-5.021102,-256.391357,-211.463776,121.627335
176,2479858103,23.448147,16.740547,-89.962067,0.122670,5.024023,-8.003082,-236.049286,-191.453613,153.304291
177,2479874770,20.103504,13.057878,-87.748077,1.209370,0.414144,-9.394608,-233.142166,-158.977036,201.285828
178,2479891437,16.429832,9.633012,-84.122849,2.290389,-4.152462,-9.315295,-261.502533,-129.675415,267.016235
179,2479908104,11.755458,6.280009,-79.086662,3.976167,-12.403298,-7.252532,-320.498474,-123.593956,339.342712
180,2479924771,6.751357,3.389225,-72.985611,7.288038,-30.573454,-3.235356,-329.259308,-113.801506,387.977356
181,2479941438,3.418189,1.528898,-67.532494,15.040381,-42.119534,0.047006,-212.388702,-83.415100,335.429962
182,2479958105,3.008877,1.365543,-64.715195,13.872722,-43.607201,-4.016956,-27.355682,-1.429132,169.124863
183,2479974772,6.028749,3.147090,-64.427292,5.585454,-35.429119,-11.023077,181.986053,106.973289,8.635188
184,2479991439,12.029999,5.871498,-66.756432,-2.966742,-25.537188,-11.353642,372.467041,138.775314,-163.501404
185,2480008106,21.373024,8.568919,-70.357887,1.668034,-16.799253,-7.705778,589.005188,92.699173,-252.344925
186,2480024773,32.559673,11.170087,-73.840416,6.801681,-11.686623,-7.062356,708.242798,45.048874,-254.955124
187,2480041440,43.709576,13.757372,-76.693459,8.097847,-7.476735,-6.042211,707.204834,18.164499,-228.058136
188,2480058107,53.433445,16.349352,-78.868294,6.403799,-4.807579,-2.695318,618.634033,7.658121,-200.659531
189,2480074774,61.523975,18.962252,-80.562737,3.985459,-1.708514,0.064535,517.599365,1.781319,-184.903076
190,2480091441,67.808372,21.610697,-81.835709,3.729283,0.602879,3.521008,404.894409,2.385646,-174.857803
191,2480108108,71.808441,24.289684,-82.547539,4.080989,0.985737,4.532466,258.025116,17.670391,-164.961136
192,2480124775,73.973503,27.096739,-82.544693,3.515936,1.903238,3.339569,131.207031,48.769455,-161.414536
193,2480141442,75.043465,30.095047,-81.884262,2.159407,4.081293,2.874086,46.613323,80.630661,-164.536804
194,2480158109,75.671104,33.155720,-80.694244,1.370266,7.152702,2.235117,1.602689,104.286987,-162.745438
195,2480174776,75.971680,36.172001,-79.111885,1.158863,8.069998,1.961676,-34.575214,119.067490,-156.740036
196,2480191443,76.272675,39.036922,-77.262718,0.064249,8.146554,0.540633,-48.252090,125.576897,-146.163956
197,2480208110,76.873466,41.672382,-75.281738,-1.870026,7.886150,0.940219,-39.522442,123.822014,-133.109268
198,2480224777,77.836815,43.992798,-73.281471,-3.375819,8.299002,1.673619,-22.396170,115.349220,-116.889030
199,2480241444,79.025032,45.966755,-71.383064,-3.854881,8.763740,1.885782,-7.816572,101.675064,-100.150986
200,2480258111,80.177620,47.601585,-69.628326,-4.101875,8.326801,1.949362,-6.158535,87.596092,-83.715958
201,2480274778,81.171318,48.873051,-67.968315,-4.508045,7.507772,2.676822,-13.252337,76.807549,-64.749886
202,2480291445,81.968742,49.793953,-66.384399,-6.217216,7.773272,4.728436,-22.806938,68.339790,-45.773010
203,2480308112,82.245316,50.375923,-65.167465,-7.251575,8.808043,5.623808,-37.970993,50.181992,-28.322832
204,2480324779,81.488136,50.718369,-64.615074,-7.393792,9.796626,5.489944,-69.580185,22.740721,-17.496180
205,2480341446,79.604111,50.886387,-64.854118,-8.166542,10.623408,5.137419,-100.478920,-8.303477,-11.534931
206,2480358113,76.684128,50.852867,-65.993706,-8.645398,10.519010,5.293540,-120.706398,-43.666153,-6.964127
207,2480374780,72.881477,50.455399,-68.016037,-8.324816,10.060125,5.255443,-132.855591,-81.517021,2.784288
208,2480391447,68.352234,49.572342,-70.756935,-7.840922,9.124411,5.389084,-144.257385,-118.303551,14.893899
209,2480408114,63.335743,48.183556,-74.045685,-7.758695,8.864182,5.673805,-150.809998,-153.544159,22.920536
210,2480424781,58.071907,46.293739,-77.742821,-6.093994,10.398729,5.861486,-151.390839,-187.861816,25.191002
211,2480441448,52.596745,43.924316,-81.598656,-3.129946,11.468328,5.557179,-162.980392,-216.204758,24.061016
212,2480458115,46.826485,41.156139,-85.365463,-0.738847,11.497745,5.114620,-191.742203,-235.501724,19.020918
213,2480474782,40.975361,38.010204,-88.827957,1.167625,10.866576,4.957683,-216.994324,-248.151733,15.528403
214,2480491449,35.361591,34.474636,-91.750351,2.825524,9.949226,3.958357,-231.456650,-255.343948,19.922699
215,2480508116,30.171257,30.564445,-93.932159,4.116745,9.434093,0.312459,-239.343658,-258.244293,34.165638
216,2480524783,25.355921,26.400518,-95.207863,4.679576,7.818093,-3.973844,-250.736496,-253.681122,56.856571
217,2480541450,20.666260,22.251804,-95.499039,4.490786,4.864997,-6.303156,-272.530548,-236.638870,82.664787
218,2480558117,15.881679,18.259048,-94.752029,3.537013,2.062276,-8.494298,-300.956055,-215.616302,115.048637
219,2480574784,10.971660,14.481380,-92.925491,2.781382,-1.033005,-10.252780,-323.860962,-197.359009,154.901855
220,2480591451,6.251458,10.932783,-89.934052,-0.090039,-4.100438,-12.192231,-321.063873,-185.566971,204.990158
221,2480608118,1.472770,7.676615,-85.670982,0.606959,-10.437799,-9.588588,-326.407410,-179.138412,264.998657
222,2480624785,-3.809645,4.996989,-80.441658,3.810413,-19.219986,-6.183537,-349.849457,-168.271347,308.507996
223,2480641452,-8.463101,3.364468,-74.980286,6.183169,-32.004147,-3.315624,-301.429443,-133.446686,314.413025
224,2480658119,-10.764798,3.034030,-70.797722,5.080225,-35.992275,-0.295743,-150.609909,-62.461891,243.591293
225,2480674786,-9.819940,4.100682,-68.900063,0.843405,-36.822315,-6.533666,51.050430,41.668964,123.101089
226,2480691453,-5.890400,6.562637,-69.340912,-2.093948,-29.327112,-10.731727,239.671234,149.043945,-6.035100
227,2480708120,0.491639,9.441657,-71.752457,-5.155939,-21.256124,-10.462494,404.429871,178.516220,-135.206528
228,2480724787,9.932441,12.179617,-74.927124,-0.357653,-15.779151,-8.247933,603.441162,145.927246,-201.663300
229,2480741454,21.166311,14.752579,-77.991859,4.630044,-12.507026,-8.234258,718.097168,100.139244,-214.248734
230,2480758121,32.728916,17.163422,-80.546593,6.016972,-7.696032,-6.660221,737.176636,61.471996,-197.534607
231,2480774788,43.487301,19.434416,-82.465996,5.772679,-3.375389,-3.437578,682.987854,38.994198,-170.693298
232,2480791455,52.901115,21.587069,-83.777054,4.372236,-0.151755,-1.150494,593.753113,30.378803,-145.905884
233,2480808122,61.061146,23.638840,-84.640877,4.024416,1.218108,0.457032,510.905518,26.114243,-129.772156
234,2480824789,67.363289,25.785002,-84.999474,4.381787,1.925641,2.251361,388.504059,37.532574,-124.882896
235,2480841456,71.939247,28.055370,-84.744118,3.871082,3.850989,2.087454,269.004181,59.252136,-123.369743
236,2480858123,75.262993,30.372772,-83.917030,3.530002,5.636445,2.411418,176.590530,79.850510,-121.529694
237,2480874790,77.576485,32.731564,-82.446274,3.546051,6.424081,2.600315,94.019478,105.349884,-120.252930
238,2480891457,79.314850,35.064850,-80.362366,2.879536,7.334928,2.368484,35.956493,128.724594,-116.683510
239,2480908124,80.913780,37.234886,-77.844986,1.538305,7.994399,2.744190,8.223063,141.498215,-107.615952
240,2480924791,82.400566,39.173920,-75.139412,0.055470,8.134474,3.005550,-9.798037,142.075546,-96.867393
241,2480941458,83.802986,40.876320,-72.433136,-1.844205,7.987739,3.111221,-18.884682,134.684845,-86.720177
242,2480958125,85.255875,42.324886,-69.829475,-3.215717,8.241661,3.183452,-15.140415,123.543495,-75.615059
243,2480974792,86.720055,43.498047,-67.415199,-4.334875,8.692416,4.528144,-9.364354,109.729492,-63.011951
244,2480991459,88.058121,44.344257,-65.337776,-4.618788,9.646151,5.570099,-4.759425,90.973122,-46.829811
245,2481008126,88.983902,44.861408,-63.717464,-4.726558,9.713696,6.709854,-11.290484,68.969406,-29.411081
246,2481024793,89.159904,45.098606,-62.638943,-5.631254,9.482510,6.985855,-33.750011,44.968014,-13.646492
247,2481041460,88.349983,45.146233,-62.270329,-6.616168,9.163632,6.623291,-62.836670,14.636648,-2.652913
248,2481058127,86.382210,45.096500,-62.716785,-7.621681,8.894014,6.222399,-97.651344,-20.045111,2.002196
249,2481074794,83.332161,44.948299,-64.065552,-7.779052,9.354376,5.111156,-124.315933,-58.793171,3.642170
250,2481091461,79.393272,44.644646,-66.258530,-7.072453,9.654907,3.997219,-142.162979,-96.078667,3.926994
251,2481108128,74.849190,44.092739,-69.133820,-6.105233,9.894840,3.160498,-150.529449,-128.633316,4.747074
252,2481124795,70.088905,43.149139,-72.489532,-5.038371,10.066723,2.700300,-145.206619,-157.077087,10.048134
253,2481141462,65.381821,41.754074,-76.103790,-3.906423,10.137192,2.478872,-134.519745,-180.831589,16.811213
254,2481158129,60.848122,39.896339,-79.768158,-2.589322,10.047897,1.864099,-126.731415,-199.842438,24.161022
255,2481174796,56.509739,37.628826,-83.317238,-1.419924,9.833010,1.052848,-125.403709,-213.630173,29.893414
256,2481191463,52.326824,34.957722,-86.613663,-0.065786,9.382122,0.120780,-132.308136,-223.987427,37.575890
257,2481208130,48.223759,31.897131,-89.497551,1.110735,8.754218,-0.892249,-149.258270,-229.543762,48.946381
258,2481224797,44.220512,28.466293,-91.791656,1.594823,8.020864,-2.284175,-169.381668,-229.482315,66.319534
259,2481241464,40.367744,24.692709,-93.357132,1.619535,7.090096,-4.728834,-187.523773,-225.192062,90.249992
260,2481258131,36.711487,20.634035,-94.014168,1.612157,4.727696,-7.123672,-202.575256,-214.354172,123.308029
261,2481274798,33.136299,16.424675,-93.565765,-0.943090,2.838716,-10.039509,-221.454285,-193.704269,165.545013
262,2481291465,29.876566,12.094497,-91.792610,-4.095085,0.701039,-12.542591,-220.178375,-168.836853,223.726913
263,2481308132,26.535532,7.702092,-88.536331,-1.258377,-3.719788,-10.549388,-232.397324,-142.446976,294.214050
264,2481324799,22.270737,3.352628,-83.576996,3.830024,-10.825158,-7.820593,-282.780121,-116.366783,377.591797
265,2481341466,16.513748,-0.766057,-76.805008,7.900496,-22.663038,-3.537118,-352.573822,-99.172523,465.342529
266,2481358133,9.659207,-3.583910,-69.372765,9.818663,-39.743160,6.124779,-392.245880,-64.737175,472.443970
267,2481374800,5.077665,-4.516976,-63.961601,6.724761,-45.231434,5.400735,-250.306274,-15.012321,328.293060
268,2481391467,5.734314,-3.529585,-61.476055,6.971721,-39.335152,-4.197659,51.327820,72.020447,142.368347
269,2481408134,10.004994,-1.046069,-61.847649,-0.532585,-23.046677,-8.309376,256.811340,143.705521,-42.652412
270,2481424801,17.690334,1.730562,-64.273857,-5.671281,-19.314939,-5.620962,463.350250,126.138885,-181.544861
271,2481441468,28.497929,4.060837,-67.365280,3.956262,-14.813168,-2.007219,659.116516,55.180779,-225.806030
272,2481458135,39.541492,5.934804,-70.158607,8.862419,-10.526853,-1.854857,678.552307,-1.041985,-201.877045
273,2481474802,49.127781,7.499057,-72.230904,7.960428,-6.780254,-1.298558,591.126648,-20.010536,-154.425690
274,2481491469,56.711876,8.848927,-73.440712,5.864706,-5.081451,0.613144,466.813721,-9.332822,-108.383965
275,2481508136,62.324097,10.067392,-73.931847,3.944952,-2.123995,2.328485,343.032990,11.176059,-78.176384
276,2481524803,65.989517,11.243615,-73.806152,3.453416,0.154526,3.139932,219.989883,36.551693,-60.701305
277,2481541470,68.036919,12.433993,-73.116539,3.429788,1.638137,2.562199,115.809708,64.268257,-50.345016
278,2481558137,69.321014,13.681654,-71.869629,2.719031,4.034574,1.690681,61.593506,94.194489,-43.632206
279,2481574804,70.669296,14.935220,-70.028564,2.365437,7.970909,0.741115,55.041203,125.381180,-34.438126
280,2481591471,72.331940,16.134542,-67.715645,2.168831,9.776849,0.405561,64.024887,148.686157,-26.171221
281,2481608138,74.376350,17.284655,-65.212929,0.762876,9.178911,-1.006340,80.909721,156.604935,-25.246866
282,2481624805,77.122887,18.396784,-62.725506,-0.775574,7.891667,-1.359626,120.478584,153.155396,-30.013269
283,2481641472,80.631813,19.566147,-60.265621,-1.600133,8.683385,0.495227,163.932739,149.503036,-42.211952
284,2481658139,84.393242,20.788515,-57.787746,-0.749254,9.966075,1.333404,175.802399,146.927536,-54.802841
285,2481674806,87.841133,22.075005,-55.218040,0.149580,10.229360,1.705146,151.927628,147.417740,-67.537315
286,2481691473,90.728554,23.471497,-52.583893,-0.838627,8.842243,2.154847,113.455688,145.747620,-82.183128
287,2481708140,93.189240,25.018377,-49.989082,-5.067850,8.194024,3.441566,85.095497,137.677322,-97.808662
288,2481724807,95.264595,26.695532,-47.671906,-7.082977,8.345725,4.802629,65.279160,116.330154,-109.751785
289,2481741474,96.647690,28.416327,-45.799389,-7.292153,8.329050,6.272068,32.413448,87.329727,-113.178719
290,2481758141,97.040062,30.106678,-44.572578,-8.254005,8.605618,7.018480,-11.024369,50.650414,-108.484337
291,2481774808,96.432114,31.750248,-44.122379,-9.281263,8.500440,7.341581,-48.940891,10.420178,-100.763275
292,2481791475,94.825264,33.343407,-44.563168,-9.147616,8.138957,7.545645,-80.756760,-32.585865,-93.027763
293,2481808142,92.264160,34.885674,-45.947216,-8.145861,7.900930,7.184546,-105.652756,-75.368866,-88.164612
294,2481824809,88.837509,36.349792,-48.226971,-6.610268,7.835015,6.030957,-124.481033,-113.066795,-86.800720
295,2481841476,84.691277,37.661552,-51.332043,-5.431900,8.031099,4.548689,-135.157440,-145.132950,-86.975975
296,2481858143,79.907722,38.715477,-55.128498,-4.259293,8.612653,3.556764,-144.672272,-169.993637,-86.631508
297,2481874810,74.458572,39.388046,-59.471523,-3.431138,8.926143,3.402342,-161.235596,-189.423691,-84.205414
298,2481891477,68.423882,39.577950,-64.170731,-2.589892,9.295496,3.202035,-181.233643,-203.739990,-80.028580
299,2481908144,61.893589,39.184380,-69.033546,-2.150600,9.821058,3.055199,-205.095032,-215.660583,-73.292221
300,2481924811,54.973793,38.166328,-73.787949,-1.396258,10.068227,2.868866,-235.299438,-222.837570,-64.531288
301,2481941478,47.978271,36.483017,-78.073883,-0.578934,10.557797,1.721530,-262.172058,-224.035217,-48.355740
302,2481958145,41.273247,34.097187,-81.569534,-0.572500,11.703039,-0.156049,-279.494202,-223.329742,-21.286646
303,2481974812,35.090618,30.975920,-83.995041,-1.185586,11.902225,-3.269019,-291.050873,-224.292389,19.337475
304,2481991479,29.500452,27.248297,-85.016144,-2.022213,9.619789,-6.908337,-303.972595,-218.952011,74.289978
305,2482008146,24.448238,23.161154,-84.365440,-3.052100,6.153762,-10.322170,-318.129089,-203.847626,142.783691
306,2482024813,19.703764,18.855141,-81.901024,-2.556643,2.116379,-13.259223,-336.018585,-188.842957,225.105881
307,2482041480,14.453495,14.555504,-77.750069,0.058908,-3.305770,-11.827397,-384.861542,-177.801376,303.919739
308,2482058147,8.348226,10.438791,-72.270630,1.979996,-13.516945,-6.274751,-435.581787,-179.888962,363.654602
309,2482074814,2.896985,6.471508,-65.728378,4.595656,-28.485643,-1.767221,-382.876465,-199.945297,409.855652
310,2482091481,-0.355778,2.983967,-59.250397,13.352563,-38.551136,-2.138019,-225.498291,-201.610596,391.877563
311,2482108148,-0.968879,1.068374,-54.441299,17.254444,-40.976765,-3.653533,-45.514614,-119.285851,286.880585
312,2482124815,2.441988,1.487332,-52.081062,10.154871,-32.772648,-9.970169,202.932785,25.964975,141.110260
313,2482141482,8.555665,3.407883,-52.289417,3.752682,-20.575672,-13.908407,368.816833,112.641693,-23.642691
314,2482158149,16.339893,5.428827,-54.934986,-2.548944,-15.533304,-13.349642,480.667023,83.462418,-180.998993
315,2482174816,26.131504,7.285293,-58.988998,2.902186,-11.697875,-11.296324,615.664551,15.388464,-266.210449
316,2482191483,36.749165,9.262233,-63.164913,11.520272,-8.844628,-7.255527,674.297668,-29.060513,-274.069519
317,2482208150,46.414249,11.287847,-66.689743,12.903321,-6.500216,-2.006466,618.882812,-48.122303,-236.902222
318,2482224817,54.193810,13.008862,-69.230209,9.392177,-6.014537,0.676420,500.201691,-49.602947,-175.114548
319,2482241484,60.542572,14.441049,-70.951439,5.227224,-5.577281,0.726039,406.816956,-39.040783,-126.913879
320,2482258151,65.778900,15.728004,-72.110176,2.298396,-3.204983,1.736118,333.672791,-25.932173,-99.651321
321,2482274818,69.783836,17.049128,-72.847435,1.775190,-0.708921,2.531754,254.181702,-10.226112,-89.869888
322,2482291485,72.620590,18.349470,-73.006683,2.723725,0.327986,2.486953,174.519470,15.595123,-77.225372
323,2482308152,74.560143,19.653896,-72.435532,2.324468,2.915183,2.786095,106.619492,52.247757,-66.351387
324,2482324819,76.311600,20.879175,-71.097740,1.567722,6.005629,1.610068,78.685051,90.405304,-52.635777
325,2482341486,78.220955,21.960482,-69.228210,0.786930,7.060288,1.750733,74.991394,115.183617,-40.663067
326,2482358153,80.325859,22.904070,-67.029877,-0.119229,6.757099,1.482162,77.356453,129.337555,-33.311287
327,2482374820,82.910339,23.746460,-64.664742,-2.773931,6.879705,2.087839,100.270042,135.289185,-31.366585
328,2482391487,85.958794,24.489538,-62.234402,-3.911945,7.864824,3.276710,124.715523,135.779877,-31.801794
329,2482408154,89.037613,25.144224,-59.769646,-3.331010,8.740959,4.133814,124.058296,134.801285,-33.692558
330,2482424821,91.680954,25.739613,-57.291676,-2.872717,8.903910,4.522408,96.133812,133.006607,-36.844109
331,2482441488,93.806526,26.314695,-54.833401,-3.840166,8.203988,4.932632,64.220863,129.704010,-41.062054
332,2482458155,95.344803,26.873993,-52.474354,-6.421841,7.716335,6.354582,30.348085,122.450211,-43.773399
333,2482474822,96.258072,27.402866,-50.454609,-8.576128,8.192120,7.626757,0.942851,103.052437,-42.669594
334,2482491489,96.292336,27.913620,-48.997021,-8.976820,8.167630,8.350958,-37.107800,72.623581,-39.097679
335,2482508156,95.191269,28.462116,-48.283649,-9.252815,8.742187,7.728849,-84.844910,33.225880,-36.658947
336,2482524823,93.045433,29.038912,-48.427757,-9.653609,8.824951,7.275534,-123.151970,-11.060347,-34.082993
337,2482541490,90.015015,29.619785,-49.459126,-9.417270,8.841372,6.433388,-150.068619,-55.876141,-33.475639
338,2482558157,86.312019,30.166101,-51.351727,-8.939842,8.673103,5.226722,-164.123016,-98.371361,-35.961319
339,2482574824,82.187027,30.600603,-54.067608,-8.339084,8.853442,4.195840,-163.592499,-138.285126,-40.037357
340,2482591491,77.866371,30.826509,-57.535049,-7.813175,9.540218,3.567839,-151.463333,-174.848602,-44.315491
341,2482608158,73.464439,30.740425,-61.615009,-6.705924,10.365988,3.187050,-137.276672,-206.079239,-47.034050
342,2482624825,69.029808,30.238436,-66.103531,-5.166657,10.957362,3.417931,-127.850571,-230.479935,-46.047527
343,2482641492,64.577599,29.211681,-70.724892,-3.176619,11.948662,3.680499,-128.031448,-246.653702,-38.182755
344,2482658159,60.065914,27.598333,-75.167015,-0.382282,12.507110,2.491170,-142.276947,-253.656830,-23.138126
345,2482674826,55.275578,25.430582,-79.086327,2.443020,11.739453,0.765141,-180.793869,-248.484528,-2.588820
346,2482691493,50.091122,22.810055,-82.139839,4.128357,9.986243,-1.718620,-234.557190,-229.479691,23.732006
347,2482708160,44.499611,19.850121,-84.084969,4.652587,7.767250,-4.254390,-291.418152,-201.574081,56.851002
348,2482724827,38.318214,16.676275,-84.763969,4.953516,4.824463,-6.249488,-356.507538,-169.706482,97.035500
349,2482741494,31.572489,13.457109,-84.080261,3.315907,1.739998,-8.972009,-413.805359,-136.951981,143.225128
350,2482758161,24.702539,10.132376,-82.117470,0.416756,-0.606024,-13.626925,-434.639923,-122.859749,195.854630
351,2482774828,17.987717,6.257397,-78.944466,3.082621,-6.205061,-14.018993,-428.312561,-149.253265,260.272430
352,2482791495,10.975787,1.943665,-74.224403,7.748648,-11.273003,-10.928486,-439.093018,-181.174850,338.398499
353,2482808162,3.566695,-2.181792,-68.294052,9.132543,-22.144575,-5.363738,-441.803772,-201.624359,384.476318
354,2482824829,-1.859041,-4.603545,-62.379612,6.294806,-35.449631,1.021934,-302.808807,-141.069351,356.361755
355,2482841496,-3.500132,-5.189347,-58.094292,3.714930,-37.969166,-0.379951,-75.054993,-48.121422,254.111267
356,2482858163,-1.398709,-4.176947,-55.833832,6.731781,-34.164902,-7.651333,138.600021,53.942348,137.503784
357,2482874830,2.949080,-1.890153,-55.694260,2.914472,-23.557550,-10.244712,262.772644,136.452530,6.353106
358,2482891497,9.674227,0.270759,-57.407352,-4.819932,-19.722635,-11.299881,403.497925,116.786972,-116.646233
359,2482908164,19.039240,2.087420,-60.281788,-0.503580,-14.434765,-10.310124,566.829041,62.076252,-194.487381
360,2482924831,29.909369,3.864744,-63.351379,6.594768,-9.917122,-7.952062,663.109192,20.073723,-212.136505
361,2482941498,40.829674,5.575508,-66.043655,11.401908,-6.770915,-4.137624,669.870117,-10.312355,-191.279282
362,2482958165,50.084820,7.135153,-68.039589,12.359212,-5.193653,0.482538,569.972656,-20.026327,-150.694489
363,2482974832,57.429256,8.550000,-69.250893,9.656743,-4.344713,2.758236,452.010040,-8.717696,-111.499619
364,2482991499,63.343811,9.765802,-69.648956,5.631505,-2.655161,3.507316,360.103241,14.695562,-75.524529
365,2483008166,67.953629,10.844761,-69.320328,3.441687,0.165391,4.459518,274.487946,43.489590,-51.426659
366,2483024833,71.321503,11.799070,-68.409851,3.509854,1.765931,4.075555,192.769684,69.239227,-35.480923
367,2483041500,73.343811,12.527692,-66.986237,2.939241,2.985006,4.636456,104.762978,91.900482,-16.743107
368,2483058167,74.341064,13.158466,-65.083961,3.181938,4.162721,3.762517,35.888985,116.472679,-5.799903
369,2483074834,75.302277,13.670864,-62.735111,0.937890,4.913792,2.547400,26.397242,139.399841,5.820086
370,2483091501,76.761192,14.048113,-60.066090,-0.159169,7.187808,2.666012,50.590984,155.380035,15.179418
371,2483108168,78.718452,14.273298,-57.217545,-0.492694,9.094797,2.970675,77.033844,163.834885,21.623554
372,2483124835,80.806259,14.411209,-54.284222,0.102933,9.694883,2.855728,83.075813,168.282318,21.823528
373,2483141502,83.088905,14.529695,-51.338066,-1.258719,9.091779,2.667365,94.183434,169.473267,16.621397
374,2483158169,85.468536,14.713567,-48.458626,-3.425148,8.526940,3.991478,100.557053,166.428589,5.396553
375,2483174836,87.844894,15.014150,-45.700520,-5.786610,8.704787,4.837991,101.524567,159.710190,-8.941206
376,2483191503,89.776230,15.503428,-43.113331,-6.465015,9.343202,5.357452,76.424843,149.314941,-26.474667
377,2483208170,90.946037,16.255951,-40.757191,-8.095458,9.244610,5.212659,32.912395,134.661285,-46.208286
378,2483224837,91.365395,17.278286,-38.813553,-11.571681,9.023971,5.448599,-7.071722,109.375526,-63.748375
379,2483241504,91.023666,18.574253,-37.520081,-13.776679,8.706418,6.483341,-42.976856,71.182068,-79.414398
380,2483258171,89.841293,20.127317,-37.022835,-13.926851,8.810969,6.748592,-79.406380,26.424507,-93.491028
381,2483274838,87.800797,21.925697,-37.350006,-12.317141,9.221779,6.396360,-113.955284,-17.125380,-108.316765
382,2483291505,84.931160,23.901398,-38.497757,-10.533116,9.673715,5.627068,-143.921051,-56.826931,-122.347488
383,2483308172,81.312042,25.955502,-40.468147,-9.410951,9.941361,4.614393,-165.853363,-92.732658,-135.185776
384,2483324839,76.809723,27.995144,-43.246292,-7.739924,10.073756,4.513205,-193.026596,-123.714508,-148.298462
385,2483341506,71.390457,29.825090,-46.780094,-5.921626,10.551448,4.603276,-221.113434,-149.537186,-156.370392
386,2483358173,65.238556,31.231768,-50.977043,-4.132552,11.153143,4.137661,-239.613281,-171.521744,-158.489288
387,2483374840,58.503281,32.025658,-55.644630,-2.421555,12.259481,3.160614,-255.636032,-189.013931,-154.343933
388,2483391507,51.288609,32.042358,-60.533863,-0.463745,13.000709,1.738969,-275.638275,-204.084320,-143.763947
389,2483408174,43.800591,31.231047,-65.274338,0.988574,12.481326,-0.033370,-298.432251,-212.771240,-127.515823
390,2483424841,36.258247,29.598341,-69.491196,1.928587,10.774071,-2.253450,-322.795227,-216.640320,-104.065659
391,2483441508,28.883427,27.213634,-72.771011,2.949943,8.030076,-4.776575,-347.241730,-215.105637,-68.853951
392,2483458175,22.007639,24.136345,-74.737541,3.456903,5.248026,-7.900662,-359.814728,-213.816177,-16.712904
393,2483474842,15.647404,20.572273,-75.259567,3.382292,2.561738,-10.600938,-368.108398,-213.183441,41.583710
394,2483491509,9.521219,16.689295,-74.387581,3.220683,-0.474195,-11.643730,-382.684143,-218.024673,99.130722
395,2483508176,3.493357,12.515137,-72.082603,3.310979,-4.836787,-10.917119,-394.900482,-235.092026,161.354202
396,2483524843,-2.249667,8.150235,-68.372215,4.240695,-14.523212,-6.431791,-382.817383,-260.851868,221.856445
397,2483541510,-6.846795,4.174126,-63.599205,6.653733,-25.974752,-2.687420,-304.900421,-261.602295,264.885712
398,2483558177,-9.513417,1.251767,-58.866581,12.018367,-34.096870,-1.745278,-171.908463,-215.019928,255.699173
399,2483574844,-9.810446,-0.040602,-55.286091,11.982693,-33.845142,-0.289155,-18.666645,-113.548409,198.602005
400,2483591511,-6.896482,0.508860,-53.395061,7.377947,-31.709768,-5.899921,175.801590,15.149390,116.913391
401,2483608178,-1.520879,2.445959,-53.388725,3.971035,-25.321283,-10.288944,323.977264,115.021698,8.772057
402,2483624845,5.902260,4.904896,-55.076717,0.034557,-19.955969,-10.444305,453.291626,142.812180,-106.869942
403,2483641512,15.473299,7.331120,-57.705639,2.504100,-13.928626,-8.156756,592.421082,113.272644,-181.517746
404,2483658179,26.439875,9.549233,-60.411747,6.114669,-10.327514,-7.059903,683.158997,66.148407,-198.130737
405,2483674846,37.614948,11.467254,-62.789997,7.531070,-7.389524,-5.336176,697.891968,22.423351,-180.556458
406,2483691513,47.903694,13.111782,-64.716721,6.669985,-4.829855,-3.207639,643.329163,-5.025772,-150.477112
407,2483708180,57.083214,14.478261,-66.096001,5.795456,-3.547484,-1.807758,571.933472,-14.661193,-114.501091
408,2483724847,64.932510,15.670051,-66.999809,4.811370,-2.280267,-0.040868,486.497101,-11.994564,-88.437019
409,2483741514,71.328735,16.869345,-67.466591,3.445463,-0.899492,1.009994,393.056274,0.971694,-77.299232
410,2483758181,76.419540,18.179300,-67.483620,2.961580,0.936072,1.795934,307.186249,19.982016,-76.276627
411,2483774848,80.396690,19.566633,-66.941208,3.395657,3.251821,1.736728,229.526154,45.951939,-75.846062
412,2483791515,83.451515,20.967953,-65.740837,3.961550,4.559337,2.222054,159.756470,77.737129,-74.228081
413,2483808182,85.954475,22.306654,-63.984406,3.424778,5.615845,1.374187,112.726028,103.967201,-71.392776
414,2483824849,88.412720,23.547657,-61.876568,2.289571,6.419915,2.121654,99.625618,118.987801,-69.085953
415,2483841516,90.987602,24.680696,-59.489330,1.296762,7.437915,3.271306,97.364586,130.065536,-67.715797
416,2483858183,93.569229,25.702263,-56.922512,0.568823,8.377062,2.863535,90.732056,135.774445,-67.180046
417,2483874850,96.111305,26.635597,-54.302517,0.229587,8.619076,2.380389,84.579590,134.806564,-68.072952
418,2483891517,98.572639,27.553049,-51.699493,-3.108453,9.078019,3.989481,77.926918,129.803696,-72.704514
419,2483908184,100.920456,28.490093,-49.204090,-6.183967,10.401473,5.623103,71.908005,119.682030,-78.095085
420,2483924851,102.798607,29.482908,-46.976097,-8.709882,10.281233,6.968800,49.297234,101.130211,-82.595726
421,2483941518,103.861679,30.565138,-45.250053,-11.866838,10.335343,7.434784,13.366767,71.219864,-84.082367
422,2483958185,104.030472,31.754375,-44.248016,-13.607018,10.239729,8.486668,-19.574667,31.693232,-81.830727
423,2483974852,103.243370,32.956692,-44.168179,-13.527693,10.040125,8.947599,-48.370590,-14.104063,-71.190567
424,2483991519,101.257698,34.116047,-45.037315,-11.962200,9.747131,8.120493,-88.904922,-58.251316,-58.836403
425,2484008186,98.167374,35.155300,-46.710068,-10.175977,9.099340,6.158345,-126.934669,-92.923294,-47.564247
426,2484024853,94.176025,36.030590,-49.067173,-9.394004,8.579294,3.660939,-155.706055,-120.995407,-39.843060
427,2484041520,89.582024,36.728779,-52.056717,-8.497673,8.318146,1.937099,-167.762573,-146.721878,-37.090477
428,2484058187,84.566132,37.147324,-55.622017,-6.501626,8.293581,1.310034,-170.884171,-170.496338,-33.735432
429,2484074854,79.192406,37.163776,-59.596897,-4.402349,7.923648,1.175965,-176.832138,-189.065491,-27.738674
430,2484091521,73.681541,36.668419,-63.808865,-3.224606,7.994219,1.046535,-177.282349,-204.436615,-18.399929
431,2484108188,68.250404,35.564358,-68.132423,-2.414351,8.492988,0.602257,-171.360657,-220.767197,-5.635296
432,2484124855,62.951683,33.857159,-72.364136,-1.222394,9.077503,-0.415845,-171.713364,-233.474442,7.142789
433,2484141522,57.798870,31.623024,-76.259613,-0.133665,8.794566,-0.708208,-181.115097,-238.274902,19.422979
434,2484158189,52.715137,28.947506,-79.601013,0.754600,8.051286,-1.028111,-202.267548,-234.900269,33.332703
435,2484174856,47.835018,25.873306,-82.207253,1.623792,7.634512,-2.438824,-219.170761,-225.852722,53.238956
436,2484191523,43.300301,22.447046,-83.831879,3.050210,6.131463,-4.437227,-230.554947,-208.666016,84.638405
437,2484208190,38.777401,18.751755,-84.288910,4.314175,4.081129,-6.563520,-260.105530,-185.365387,126.325905
438,2484224857,33.935707,14.872071,-83.373489,4.238299,1.372087,-9.516978,-304.764191,-157.601486,180.458344
439,2484241524,28.492716,10.838351,-81.095833,3.863761,-1.084095,-9.677319,-355.328613,-139.233093,239.511673
440,2484258191,22.185658,6.643998,-77.468536,4.037040,-6.905490,-7.448787,-409.751099,-136.651245,302.286346
441,2484274858,15.793655,2.820721,-72.399330,5.325086,-19.585327,-3.200837,-406.792450,-119.451843,361.415955
442,2484291525,10.973324,-0.023313,-66.702034,7.801405,-33.554016,0.870027,-295.850800,-87.989197,371.965973
443,2484308192,9.212972,-1.294358,-61.878685,10.788826,-39.991093,0.360066,-100.802139,-25.416853,298.144958
444,2484324859,11.206959,-0.652965,-59.271629,9.948136,-36.001301,-4.909018,123.727989,64.622452,146.951187
445,2484341526,16.363371,1.412247,-58.814358,4.116063,-25.936934,-11.202953,310.652924,126.054901,-3.064673
446,2484358193,24.409876,4.051324,-60.362366,0.120863,-20.392162,-11.495585,488.613922,115.385994,-142.467575
447,2484374860,34.539459,6.611446,-63.163677,3.042546,-13.969582,-6.272277,624.701233,50.645874,-221.843109
448,2484391527,45.257286,8.938519,-66.169044,6.756235,-10.200189,-3.990012,668.753723,-8.294106,-227.303268
449,2484408194,55.080414,11.123329,-68.754662,8.704681,-6.697530,-2.250575,617.739502,-34.192730,-199.162476
450,2484424861,63.103878,13.117417,-70.551933,7.441548,-5.126850,-0.976957,505.435547,-29.859829,-157.394928
451,2484441528,69.489464,14.781479,-71.683899,3.679254,-2.787579,0.673181,400.915985,-21.092010,-118.465401
452,2484458195,74.219177,16.194885,-72.370667,1.497463,-0.852999,2.967954,296.204742,-12.230977,-93.478821
453,2484474862,77.384476,17.474052,-72.566910,1.943468,-0.035834,3.272921,194.751541,6.969599,-77.676559
454,2484491529,79.441040,18.699600,-72.128220,2.928836,1.486615,3.340563,116.647720,38.333271,-67.499878
455,2484508196,80.850258,19.877182,-71.016953,2.714949,5.216362,4.134627,63.950466,73.129250,-59.318336
456,2484524863,81.901192,20.947414,-69.307068,1.669635,7.954800,3.459770,28.688963,103.715660,-49.520218
457,2484541530,82.983711,21.997837,-67.241600,1.003402,9.018430,2.024737,20.994865,121.622353,-47.728058
458,2484558197,84.442665,23.047916,-65.037483,0.081639,8.071375,0.702088,38.281204,127.321068,-49.634422
459,2484574864,86.300453,24.086290,-62.842209,-1.719736,7.241704,1.482915,60.203835,124.348091,-52.713371
460,2484591531,88.519127,25.094812,-60.682701,-2.909034,7.799399,2.666533,80.598938,119.411354,-55.453468
461,2484608198,90.813934,26.102863,-58.518097,-2.987727,8.996726,3.300468,82.972977,116.451706,-60.097969
462,2484624865,92.729988,27.157295,-56.338188,-2.036557,9.501848,3.433750,57.736950,113.874542,-67.114578
463,2484641532,93.915527,28.301975,-54.169933,-2.681683,8.920562,3.486729,11.999100,109.941284,-75.470184
464,2484658199,94.436638,29.527594,-52.063267,-5.789348,8.053685,4.344346,-28.447922,103.954529,-81.601196
465,2484674866,94.329292,30.767712,-50.280827,-8.539713,7.693531,5.194972,-58.743351,85.483192,-81.429649
466,2484691533,93.587173,31.986975,-49.107155,-10.259760,8.008803,5.355063,-79.781700,53.900177,-77.276138
467,2484708200,92.231361,33.126789,-48.745178,-10.699426,9.213145,4.427313,-91.612656,13.782441,-69.337341
468,2484724867,90.377014,34.191986,-49.208504,-10.931928,10.227057,3.308961,-94.424736,-25.612953,-63.434681
469,2484741534,88.227791,35.162701,-50.472511,-11.110734,10.895243,2.116160,-84.368271,-62.683449,-59.018471
470,2484758201,85.988914,35.991699,-52.456173,-10.186878,11.120284,1.191731,-63.642010,-95.197914,-54.533413
471,2484774868,83.769051,36.603893,-55.011219,-8.793497,11.090958,0.848670,-40.979847,-120.811920,-47.544090
472,2484791535,81.559349,36.884197,-58.002575,-7.411434,10.883605,1.434316,-23.740467,-141.525955,-34.941380
473,2484808202,79.243286,36.748619,-61.292458,-6.202853,10.585887,2.352818,-19.191183,-158.200058,-18.201225
474,2484824869,76.652054,36.155533,-64.745079,-5.276301,10.831387,3.601585,-30.887884,-171.422073,0.153750
475,2484841536,73.661018,35.062054,-68.236641,-4.723783,11.692169,4.971736,-55.953537,-182.495850,19.946230
476,2484858203,70.301079,33.418339,-71.525925,-3.579091,13.432515,4.741116,-88.993469,-186.729019,43.491997
477,2484874870,66.550964,31.113644,-74.319946,-0.533904,13.716843,2.484043,-133.929733,-183.778046,76.671051
478,2484891537,62.223705,28.023357,-76.162102,3.474116,12.118540,-1.036748,-203.486404,-168.014847,125.876518
479,2484908204,56.982700,24.018824,-76.546707,6.191512,7.984668,-4.131492,-302.694763,-140.708328,197.047485
480,2484924871,50.454334,19.254656,-75.076782,7.566276,1.957716,-7.845124,-422.503540,-104.353355,279.329926
481,2484941538,42.935036,14.080647,-71.774864,7.619102,-8.916180,-11.274468,-506.134949,-76.068748,356.548004
482,2484958205,35.749718,8.822334,-66.780006,9.314807,-24.913069,-10.513059,-488.673035,-58.907604,427.574432
483,2484974872,31.247995,4.064145,-61.098740,11.897939,-40.105225,-9.369973,-306.611237,-52.129627,440.119812
484,2484991539,30.711100,0.592239,-56.400848,15.972892,-46.626858,-9.747365,-42.243870,-34.631187,348.581848
485,2485008206,34.383392,-0.642392,-53.688828,10.853133,-33.051521,-12.276929,221.792572,24.127260,176.879166
486,2485024873,41.833309,-0.177146,-53.270519,3.876041,-23.248703,-17.439743,448.640381,36.565411,2.286253
487,2485041540,51.832390,1.565396,-55.535923,1.887364,-15.520747,-12.818569,602.967346,-28.531870,-169.739334
488,2485058207,62.278812,3.691205,-59.429028,6.300839,-13.933158,-3.127186,638.694519,-127.549034,-234.578812
489,2485074874,71.172195,6.051958,-63.557560,11.482791,-12.284831,2.933393,555.835205,-171.867584,-228.245834
490,2485091541,78.222237,8.367424,-66.920258,9.235543,-10.234374,1.788272,449.613770,-157.451859,-187.398911
491,2485108208,83.747742,10.294488,-69.362473,4.638875,-8.747256,1.219597,356.646729,-125.705231,-137.414566
492,2485124875,87.458893,11.946124,-71.097649,2.070811,-5.850643,1.232647,244.140656,-95.266922,-107.199265
493,2485141542,89.394791,13.354115,-72.198647,1.137591,-2.614807,3.491488,132.028687,-63.126308,-86.778107
494,2485158209,89.775192,14.471258,-72.524376,2.310089,-0.246549,4.781405,28.939564,-19.508041,-67.722679
495,2485174876,89.184692,15.261580,-72.081436,3.141515,2.090096,3.549307,-40.840065,25.095949,-47.737740
496,2485191543,88.346039,15.806422,-71.072769,1.190344,5.220050,2.667761,-65.121254,57.984051,-31.968960
497,2485208210,87.742897,16.208633,-69.764282,-0.833888,7.726481,1.532894,-56.434917,75.229721,-22.061222
498,2485224877,87.501320,16.496635,-68.328186,-0.019248,7.752802,1.792028,-37.349850,82.309898,-14.320583
499,2485241544,87.688141,16.764557,-66.831680,-0.055715,6.689218,1.057899,-13.088777,85.615135,-12.904912
500,2485258211,88.560722,17.097204,-65.315010,-1.766156,5.833665,0.345566,27.250782,86.638870,-17.525839
501,2485274878,90.073395,17.578379,-63.742031,-2.303237,6.570581,1.292775,64.030746,89.401314,-28.195278
502,2485291545,91.757065,18.197950,-62.111118,-1.154475,8.075360,2.552876,72.361443,91.486572,-39.028076
503,2485308212,93.037811,18.962851,-60.406345,-0.245186,7.701437,3.254543,45.647949,93.912613,-50.247959
504,2485324879,93.963875,19.907768,-58.666134,-2.032023,7.206959,2.363914,22.210566,93.776077,-62.911110
505,2485341546,94.896004,21.034573,-56.980080,-4.524348,6.922775,2.599923,21.934084,88.224800,-75.006920
506,2485358213,96.049164,22.294287,-55.446251,-6.593233,8.655917,2.864640,36.604767,76.886459,-83.642151
507,2485374880,97.195137,23.598110,-54.303329,-6.838947,10.683293,4.618188,43.417370,52.666889,-85.198303
508,2485391547,97.848625,24.893642,-53.786400,-7.480932,11.411564,5.775947,27.870031,16.823095,-80.926163
509,2485408214,98.058342,26.095827,-54.060253,-9.418743,11.135215,6.409708,21.048386,-25.699732,-69.497910
510,2485424881,97.577118,27.188011,-55.241299,-9.597706,9.459092,7.266176,4.303709,-72.685364,-56.363548
511,2485441548,96.152168,28.164030,-57.261238,-8.878646,7.393544,6.879126,-27.784899,-114.571526,-45.320236
512,2485458215,93.807800,29.032791,-59.997681,-8.395743,6.398047,5.748428,-60.622364,-149.135269,-39.382477
513,2485474882,90.662590,29.788391,-63.335205,-7.918841,6.515185,4.925897,-88.883514,-177.077759,-38.431744
514,2485491549,86.737526,30.382614,-67.186943,-6.882079,7.351127,5.009036,-118.109779,-200.107971,-40.086269
515,2485508216,82.122238,30.710180,-71.372017,-5.789948,8.193245,4.751670,-147.709488,-214.333267,-40.437145
516,2485524883,77.133247,30.651638,-75.696098,-5.184968,9.581759,4.313766,-165.333542,-221.134216,-36.590218
517,2485541550,72.001205,30.075663,-79.957222,-4.390566,11.273242,4.134040,-177.033539,-222.886841,-25.256834
518,2485558217,66.938080,28.934397,-83.858055,-3.456059,13.863008,3.112821,-186.854095,-215.840790,-7.161129
519,2485574884,62.286865,27.201656,-87.058716,-3.592316,16.423927,0.575039,-187.049667,-198.770584,21.447336
520,2485591551,58.328915,24.927559,-89.003777,-3.563918,15.759135,-1.181020,-184.544037,-159.809860,66.824852
521,2485608218,54.775330,22.256100,-89.070938,-0.959422,11.017924,-2.386831,-209.949692,-92.629593,131.979691
522,2485624885,50.656712,19.419590,-86.945938,2.073660,4.590915,-3.245306,-290.797974,-9.507416,207.901047
523,2485641552,45.421204,16.573677,-82.872566,2.170773,-2.490285,-4.599078,-387.894165,57.479900,282.728302
524,2485658219,38.975620,13.747770,-77.411018,4.194190,-9.563751,-5.961735,-470.564911,85.696571,348.576721
525,2485674886,31.394268,10.879725,-70.854965,8.883101,-16.270796,-9.595714,-536.731567,79.727921,413.682831
526,2485691553,23.522736,8.407247,-63.536530,15.342966,-30.821993,-9.716941,-543.730652,66.946404,452.944214
527,2485708220,17.436657,7.037663,-57.274956,19.440311,-41.217705,-3.664652,-413.872925,52.199707,377.625824
528,2485724887,15.709356,7.045012,-53.629875,9.947890,-34.289406,-8.094316,-128.994644,61.311337,207.768616
529,2485741554,17.630322,8.438136,-52.148609,4.907142,-24.814610,-13.723886,104.738243,104.427017,60.214867
530,2485758221,21.875912,10.628805,-53.447197,-6.015373,-16.862713,-15.944298,269.103943,96.917122,-116.972183
531,2485774888,29.196184,12.744721,-56.711411,-3.878542,-14.559664,-12.911725,480.270508,31.057205,-228.180176
532,2485791555,37.795212,14.566918,-60.809433,7.889927,-10.432135,-9.522298,575.304199,-41.556198,-260.121033
533,2485808222,45.878353,16.245598,-64.747284,12.994100,-10.338474,-6.358056,549.079224,-77.767807,-237.433273
534,2485824889,52.884003,17.647963,-68.097832,8.554474,-10.083927,-3.580068,480.296783,-92.047729,-189.594681
535,2485841556,59.234802,18.644859,-70.939255,3.169401,-9.032459,-4.157260,435.523346,-101.870491,-140.624695
536,2485858223,64.655472,19.436632,-73.468842,2.810730,-6.730157,-2.704734,376.141785,-105.136276,-109.954895
537,2485874890,68.672867,20.242533,-75.464729,3.941158,-4.558081,-1.900972,283.087341,-85.147835,-89.579453
538,2485891557,71.589989,21.058722,-76.745293,4.097164,-2.653078,-1.372425,203.525192,-51.859146,-71.058334
539,2485908224,73.751511,21.975235,-77.307091,2.729954,-0.365941,0.578268,143.446091,-14.460831,-62.405350
540,2485924891,75.633171,22.997425,-77.127197,1.530404,3.005551,2.011782,110.156784,24.883278,-57.087162
541,2485941558,77.590393,23.989283,-76.245781,1.067882,5.353964,2.860655,97.729591,60.018814,-47.209099
542,2485958225,79.628883,24.916304,-74.801598,1.234787,5.853189,2.122076,87.819046,87.342972,-39.465332
543,2485974892,81.809303,25.766273,-72.964752,0.491722,5.332592,1.377698,85.028267,105.539139,-34.755817
544,2485991559,84.361458,26.544268,-70.868439,-1.734133,6.250651,2.893711,99.060188,116.696609,-33.212337
545,2486008226,87.266029,27.102739,-68.589409,-2.563654,7.327242,4.118883,113.951057,123.133995,-24.944332
546,2486024893,90.121033,27.430714,-66.184212,-1.940622,7.945193,5.009263,106.576378,127.664268,-17.148174
547,2486041560,92.527718,27.581573,-63.715351,-0.775901,7.364006,4.687002,77.384888,130.102722,-12.449618
548,2486058227,94.315033,27.663620,-61.223988,-1.343602,6.666380,4.566683,39.332142,130.868530,-13.150790
549,2486074894,95.523506,27.726990,-58.839718,-4.306948,6.154425,5.102862,7.428028,124.821846,-14.954030
550,2486091561,96.243172,27.814163,-56.802376,-6.852015,7.215097,5.478912,-12.360442,106.011719,-16.562788
551,2486108228,96.467232,27.971771,-55.197063,-6.618554,7.910557,5.382997,-30.190575,82.526054,-19.055494
552,2486124895,96.012268,28.239878,-54.054485,-6.380002,8.732759,5.692402,-58.161877,57.339371,-22.757050
553,2486141562,94.976311,28.603275,-53.405743,-7.541173,10.026303,6.515726,-79.251495,30.967669,-25.133875
554,2486158229,93.335167,29.060549,-53.426292,-8.798433,10.829197,6.934938,-96.443680,-4.081502,-27.390165
555,2486174896,91.045807,29.655832,-54.276028,-8.880292,10.986960,6.125688,-110.929886,-46.786869,-34.043068
556,2486191563,88.282501,30.360741,-55.997189,-8.650458,10.884886,4.878032,-112.704300,-90.197708,-42.814560
557,2486208230,85.187088,31.098566,-58.521603,-7.543557,10.812091,4.081118,-106.859802,-128.492111,-51.554436
558,2486224897,81.803062,31.806501,-61.721210,-5.487568,10.523068,4.489919,-101.376953,-158.937668,-60.645222
559,2486241564,77.979568,32.422699,-65.501854,-4.431558,10.474984,5.853994,-107.295631,-183.703156,-69.967674
560,2486258231,73.641830,32.884377,-69.815659,-4.324647,10.464329,6.507801,-119.042931,-205.549500,-80.087250
561,2486274898,68.920151,33.144855,-74.612892,-4.896682,10.868208,6.905703,-124.857460,-224.658676,-92.043274
562,2486291565,64.054230,33.036819,-79.738060,-4.659339,11.674945,6.954197,-122.397591,-239.929031,-96.606308
563,2486308232,59.390305,32.400459,-84.721794,-3.203911,12.730724,5.591676,-116.515007,-240.763245,-85.318260
564,2486324899,55.387764,31.103735,-88.850578,-1.967086,12.587905,3.426854,-108.104645,-220.522827,-47.733601
565,2486341566,51.983517,29.128868,-91.440353,-0.681986,9.899510,1.295027,-124.614876,-179.687256,16.158684
566,2486358233,48.679630,26.603981,-92.068115,-0.208333,6.027252,-0.432281,-178.956497,-123.601608,95.667221
567,2486374900,45.007900,23.801661,-90.610802,0.508091,3.742546,-6.264686,-255.854675,-58.586899,177.096985
568,2486391567,40.569229,20.915117,-87.265541,3.393793,-0.689853,-9.635907,-340.947784,-2.303192,254.208115
569,2486408234,34.719513,18.072548,-82.275337,4.503139,-3.050427,-13.284266,-449.076202,36.076622,328.034821
570,2486424901,28.122793,15.214158,-75.834618,3.715950,-12.119250,-13.899594,-504.531586,45.464901,405.778473
571,2486441568,22.012825,12.555050,-68.652809,6.032067,-29.959774,-6.932219,-468.045715,31.551285,446.816956
572,2486458235,18.200954,10.320702,-62.429958,15.479509,-42.620823,-2.108716,-301.084290,-1.234576,389.784454
573,2486474902,17.708870,9.231516,-58.643341,14.037638,-39.324589,-6.029190,-66.652054,5.771390,233.017120
574,2486491569,20.656309,9.683824,-57.025826,8.318186,-27.710522,-13.860966,162.362076,56.144997,81.339302
575,2486508236,25.314247,11.594063,-57.890709,0.122474,-16.451134,-16.571938,290.534668,84.775818,-91.942940
576,2486524903,31.798138,14.059127,-60.573505,-2.272378,-11.688188,-15.412066,426.176147,54.089321,-208.923584
577,2486541570,39.780418,16.531555,-64.157745,4.649155,-10.051538,-10.405252,536.993774,-1.804102,-255.529922
578,2486558237,47.777271,18.876549,-67.786209,9.331409,-9.809229,-6.099939,547.328613,-42.758232,-247.652664
579,2486574904,55.185143,20.939878,-70.881454,8.665520,-9.085939,-4.440905,509.052704,-60.369217,-206.173660
580,2486591571,61.884247,22.594172,-73.396507,5.260559,-7.073224,-3.328176,459.272522,-68.589760,-158.390594
581,2486608238,67.987434,23.899328,-75.401657,2.630122,-5.582458,-2.713958,415.053345,-67.841240,-118.343697
582,2486624905,73.045486,25.099701,-77.021477,2.068150,-4.283542,-1.258883,345.172272,-60.262218,-97.975441
583,2486641572,76.915497,26.286203,-78.245041,2.166706,-2.854570,0.120413,265.418396,-46.377151,-86.476707
584,2486658239,79.634193,27.461897,-78.963341,2.496308,-2.657519,1.914693,183.993347,-24.261976,-77.450546
585,2486674906,81.079056,28.665470,-78.987701,2.326678,-0.684143,2.811423,88.768646,9.852196,-71.973267
586,2486691573,81.739494,29.830902,-78.301170,2.758810,1.866351,1.858668,20.889812,44.997166,-64.325050
587,2486708240,82.108002,30.864386,-77.026703,1.756265,3.125375,1.465536,-15.139700,73.055939,-52.655582
588,2486724907,82.527092,31.714092,-75.362946,0.710256,4.128064,2.483277,-25.308296,90.354012,-39.631351
589,2486741574,83.235085,32.336170,-73.353981,-0.357846,5.386635,3.946664,-20.049004,105.024666,-24.856197
590,2486758241,84.280991,32.707596,-71.056084,-0.136437,6.391619,3.137290,-9.973678,116.976143,-9.968798
591,2486774908,85.389030,32.910740,-68.531235,1.062237,6.181007,2.373429,-14.203531,126.885353,-1.101499
592,2486791575,86.315582,33.027481,-65.840004,0.843392,6.197559,1.811914,-30.879108,134.594940,2.415011
593,2486808242,87.158783,33.081264,-63.113934,-0.497431,5.731819,2.752821,-37.220345,136.017578,4.209967
594,2486824909,87.971092,33.078400,-60.425953,-1.717469,5.448324,3.940416,-37.888741,133.971191,5.568113
595,2486841576,88.671204,33.068947,-57.855713,-2.333110,5.825810,4.695137,-40.746117,128.118027,4.034238
596,2486858243,89.168663,33.121063,-55.457306,-2.672905,7.302157,4.536785,-47.315929,119.557259,-1.142009
597,2486874910,89.536522,33.318192,-53.210957,-4.015751,9.049403,5.291245,-50.359676,111.840363,-10.807381
598,2486891577,89.856033,33.686111,-51.130421,-5.282402,10.620522,6.881407,-48.326954,103.165314,-21.736160
599,2486908244,89.917389,34.273643,-49.354118,-7.346916,10.885078,8.296925,-54.487015,87.400948,-35.243046
600,2486924911,89.579880,35.153080,-48.195087,-10.565121,10.923952,9.093294,-58.459038,56.345825,-52.632668
601,2486941578,88.599030,36.383400,-48.078442,-13.498583,11.161946,9.533596,-61.542114,5.801100,-73.781952
602,2486958245,86.697281,37.947308,-49.252373,-14.032005,11.826282,9.065714,-70.140266,-53.281433,-96.054909
603,2486974912,83.764572,39.727734,-51.708870,-13.216923,12.801892,7.689730,-82.079346,-106.580490,-115.915237
604,2486991579,79.829964,41.531876,-55.276733,-11.797284,13.450214,6.974417,-95.180260,-146.422211,-130.152695
605,2487008246,74.922150,43.105457,-59.762177,-10.697903,14.273651,7.496181,-111.716949,-174.624893,-135.379562
606,2487024913,69.194923,44.189819,-64.899658,-9.267450,15.981595,7.495941,-129.264740,-193.251541,-130.316788
607,2487041580,62.887806,44.507618,-70.356941,-7.177184,17.716137,6.933203,-147.887878,-207.346100,-112.202919
608,2487058247,56.424339,43.819588,-75.522827,-4.104630,18.899445,5.597780,-170.183731,-213.894089,-76.402588
609,2487074914,50.241486,41.968063,-79.617218,-0.555855,17.456881,3.243423,-202.083878,-211.925278,-18.068235
610,2487091581,44.547047,39.039108,-81.940948,1.678562,13.665771,-0.641527,-249.429230,-198.333435,57.910427
611,2487108248,39.299816,35.265430,-82.153831,3.648005,8.406355,-5.168912,-305.438110,-176.706497,144.070587
612,2487124915,33.894302,30.988894,-80.293282,5.601429,3.289026,-9.306252,-383.636963,-151.757645,228.417191
613,2487141582,27.915348,26.387558,-76.576530,5.881607,-2.273007,-13.798854,-464.024139,-137.887650,310.055573
614,2487158249,21.252953,21.583914,-71.342476,5.039375,-12.355132,-15.227443,-525.527283,-144.145905,381.253113
615,2487174916,14.530097,16.983372,-65.348602,9.459939,-30.761259,-11.546391,-520.225159,-159.740997,408.213623
616,2487191583,9.139239,12.980487,-59.951981,20.897390,-38.491543,-4.756010,-405.438080,-172.167221,355.534668
617,2487208250,5.453403,10.458005,-56.341576,20.998165,-34.898972,-5.133148,-263.672119,-124.328613,229.532852
618,2487224917,5.030945,9.933776,-54.623737,7.605032,-27.067066,-9.167764,-42.205681,-23.058743,103.725533
619,2487241584,7.512292,11.414803,-54.691822,3.876880,-23.280115,-15.903777,151.050400,86.988174,-13.864688
620,2487258251,11.241737,14.054698,-56.988850,-5.400131,-10.853145,-15.084830,255.540253,133.545273,-158.659866
621,2487274918,17.745949,16.554739,-60.310101,-4.020822,-11.171823,-11.988470,444.175049,96.326218,-223.971420
622,2487291585,26.239594,18.826532,-64.044609,3.582478,-8.171524,-7.583021,578.978394,45.654118,-249.467804
623,2487308252,35.287609,20.694651,-67.640076,7.057387,-7.081829,-6.519802,617.097107,-8.361696,-232.339783
624,2487324919,43.874439,22.138981,-70.885704,6.028811,-3.707716,-4.846128,587.624146,-49.583099,-195.478180
625,2487341586,51.924553,23.081463,-73.662491,4.136176,-2.719680,-3.471226,548.393860,-77.101753,-145.583099
626,2487358253,59.310760,23.570515,-76.095795,2.082566,-1.895317,-1.757178,502.324738,-95.002106,-100.408875
627,2487374920,65.346382,23.743820,-78.259796,1.569282,-1.537825,-0.212809,415.590912,-101.444885,-64.899254
628,2487391587,69.856895,23.774221,-80.087746,2.315590,-1.652844,1.099536,316.179077,-93.064163,-40.382454
629,2487408254,72.823738,23.788729,-81.361687,2.562709,-1.332586,2.238190,210.199142,-66.947388,-23.644085
630,2487424921,74.282349,23.800737,-81.874031,2.728689,-0.783819,3.293649,101.284851,-27.742369,-9.095387
631,2487441588,74.525246,23.741508,-81.601089,2.523957,0.474524,3.156736,9.331017,12.504433,7.014717
632,2487458255,74.240509,23.528341,-80.661018,1.983494,1.836884,2.586127,-38.341213,45.342976,25.798021
633,2487474922,74.033073,23.080732,-79.181992,1.134336,3.312989,2.110667,-46.198421,70.076088,47.688934
634,2487491589,74.213783,22.347721,-77.352852,0.311882,4.297009,2.626842,-30.180027,84.359818,69.589165
635,2487508256,74.801041,21.357250,-75.308044,-0.007793,4.492747,2.140012,-9.074770,92.874916,87.294876
636,2487524923,75.872078,20.210619,-73.145416,-0.625580,4.309437,1.210262,19.572636,98.956787,96.893082
637,2487541590,77.542664,18.974543,-70.922379,-1.140941,3.846311,0.598836,56.862572,104.241966,100.715614
638,2487558257,79.535294,17.759710,-68.698769,-1.521591,3.385611,1.743387,78.873741,108.614594,96.262573
639,2487574924,81.569481,16.609903,-66.477318,-2.240163,3.503518,2.091092,84.036278,113.277756,88.637627
640,2487591591,83.585350,15.514186,-64.273827,-2.357033,3.778968,1.496971,85.745552,116.479904,81.307922
641,2487608258,85.395058,14.479156,-62.099842,-2.236591,3.590554,1.709900,76.211090,118.439728,73.635262
642,2487624925,86.760872,13.509275,-59.925381,-2.265747,3.388748,2.208076,51.791302,121.297768,66.456902
643,2487641592,87.698540,12.573440,-57.749462,-3.152943,3.218172,1.828033,28.202290,123.298851,61.991337
644,2487658259,88.407738,11.638540,-55.631229,-3.846604,2.965448,0.767159,17.304464,121.272758,60.062183
645,2487674926,89.035866,10.685729,-53.617577,-3.719162,2.810312,-0.204831,15.715968,116.209595,59.598469
646,2487691593,89.570412,9.706808,-51.719448,-3.372017,2.484648,-0.291427,13.337389,110.348930,59.913609
647,2487708260,89.870804,8.696758,-49.915871,-2.680344,2.059479,0.620476,2.149306,105.505920,60.959724
648,2487724927,89.924744,7.644065,-48.204170,-2.690955,1.633208,0.905873,-9.923203,100.531433,63.193787
649,2487741594,89.886421,6.558026,-46.636131,-3.264719,1.119726,0.110021,-12.491768,92.237869,65.179413
650,2487758261,89.925804,5.472815,-45.289238,-3.024328,0.935925,-0.384302,-4.662313,79.248329,65.122627
651,2487774928,89.985161,4.437864,-44.152325,-2.294382,0.899431,0.213960,-0.882627,66.895393,62.040031
652,2487791595,89.912529,3.489126,-43.176659,-1.684631,0.840559,0.723792,-6.953048,57.339363,56.876583
653,2487808262,89.665886,2.631964,-42.344418,-1.558598,0.680993,0.775731,-16.012245,48.660896,51.521156
654,2487824929,89.320091,1.844430,-41.647728,-1.338720,0.459883,1.055124,-20.926060,40.336983,47.534187
655,2487841596,88.869072,1.130873,-41.094761,-1.683266,-0.045159,0.788718,-26.467999,31.472200,43.251171
656,2487858263,88.548706,0.479731,-40.707455,-1.466160,-0.235970,0.617259,-18.089169,21.336882,39.505695
657,2487874930,88.319054,-0.101314,-40.428772,-1.214080,-0.339083,0.782462,-12.371477,14.747062,35.233307
658,2487891597,88.127159,-0.607567,-40.233826,-1.119857,-0.146055,0.422822,-9.975111,9.735777,30.652189
659,2487908264,87.978264,-1.056525,-40.095455,-0.802998,0.128100,0.596672,-7.343822,6.364575,27.135202
660,2487924931,87.751251,-1.446872,-39.981873,-0.928130,0.238203,0.569243,-12.002564,4.920360,23.591272
661,2487941598,87.499199,-1.804607,-39.907284,-1.195992,0.160963,0.171957,-13.525174,2.563869,21.566536
662,2487958265,87.253799,-2.132403,-39.881618,-1.413335,0.050533,0.034504,-13.197328,-0.378877,19.656218
663,2487974932,86.972221,-2.440724,-39.903252,-1.531939,0.055056,-0.067990,-15.470193,-3.244291,18.352596
664,2487991599,86.714050,-2.754046,-39.974354,-1.272993,0.402067,-0.321576,-14.203283,-6.309382,18.482679
665,2488008266,86.437561,-3.082856,-40.061008,-0.915838,0.677414,-0.126878,-15.371816,-7.379547,19.334156
666,2488024933,86.034058,-3.421614,-40.130253,-0.730286,0.758545,0.097589,-22.964602,-6.492726,19.962971
667,2488041600,85.477806,-3.767159,-40.178680,-0.901469,0.666377,-0.058830,-32.077728,-5.448118,20.418247
668,2488058267,84.883278,-4.121054,-40.241886,-0.952812,0.429701,-0.064320,-34.451817,-6.574997,20.800964
669,2488074934,84.335274,-4.470454,-40.347866,-1.042080,0.193231,0.004054,-31.876390,-9.305259,20.238731
670,2488091601,83.880676,-4.811650,-40.515965,-1.059384,0.160417,0.039030,-26.609842,-13.124671,19.297495
671,2488108268,83.584496,-5.150104,-40.750942,-0.971415,0.286626,0.246554,-17.510309,-17.205620,18.620119
672,2488124935,83.392967,-5.491261,-41.037380,-0.778576,0.471804,0.681335,-11.598146,-20.350470,18.367764
673,2488141602,83.223091,-5.832198,-41.353046,-0.525686,0.626864,1.112696,-10.574148,-22.130547,18.093157
674,2488158269,83.041405,-6.151928,-41.703968,-0.599187,0.472371,1.358663,-11.613222,-24.114988,16.516436
675,2488174936,82.874008,-6.429204,-42.107155,-0.622155,0.269650,1.318097,-11.209208,-26.931993,13.539170
676,2488191603,82.773056,-6.639143,-42.586258,-0.616112,0.083141,1.210681,-7.840206,-30.939507,8.907382
677,2488208270,82.704926,-6.748869,-43.154892,-0.606606,-0.028692,1.120684,-6.575240,-35.476727,2.225767
678,2488224937,82.696716,-6.759019,-43.816570,-0.605528,-0.091029,0.798366,-3.669284,-40.213493,-4.426964
679,2488241604,82.757439,-6.679523,-44.563911,-0.609071,-0.004579,0.584914,-0.107280,-44.601685,-10.391300
680,2488258271,82.873291,-6.536298,-45.379040,-0.545904,0.173898,0.428484,2.821757,-48.159843,-14.624454
681,2488274938,82.987709,-6.348466,-46.232796,-0.367472,0.370444,0.445514,2.618572,-50.160240,-17.471029
682,2488291605,83.054962,-6.138239,-47.094036,-0.129265,0.498421,0.470567,-0.082256,-50.481812,-18.782534
683,2488308272,83.026527,-5.917158,-47.948021,0.029486,0.477771,0.531950,-5.585828,-50.005436,-19.363050
684,2488324939,82.913071,-5.697163,-48.793335,0.186122,0.352015,0.416543,-10.436823,-49.496143,-19.298473
685,2488341606,82.729004,-5.476111,-49.635525,0.403349,0.226227,0.340832,-14.462263,-49.271614,-19.468550
686,2488358273,82.498306,-5.249296,-50.483025,0.629324,0.148545,0.127717,-17.095396,-49.484165,-20.031645
687,2488374940,82.231300,-5.012838,-51.346794,0.700218,0.040218,-0.063324,-19.157425,-50.308727,-20.950741
688,2488391607,81.962845,-4.761368,-52.246986,0.717639,0.020677,-0.373410,-19.212587,-52.260422,-22.379457
689,2488408274,81.731964,-4.506803,-53.197044,0.771043,0.062161,-0.555052,-16.964792,-55.106014,-23.216425
690,2488424941,81.530075,-4.264688,-54.193111,0.960388,0.162841,-0.491678,-15.191534,-57.868469,-23.089773
691,2488441608,81.326477,-4.044315,-55.208794,1.271177,0.289311,-0.377563,-15.142888,-59.161289,-22.182899
692,2488458275,81.084885,-3.857389,-56.221008,1.556859,0.353854,-0.245358,-17.196749,-59.190399,-20.401457
693,2488474942,80.773048,-3.710193,-57.207973,1.935730,0.376110,-0.118350,-21.142578,-57.985123,-18.096558
694,2488491609,80.350777,-3.590968,-58.143414,2.187506,0.292579,-0.004655,-27.442377,-55.106098,-16.307045
695,2488508276,79.839355,-3.492457,-59.015820,2.223363,0.065169,-0.088214,-32.462021,-51.475590,-14.881848
696,2488524943,79.279922,-3.399889,-59.830257,2.222178,-0.185303,-0.195378,-35.055630,-47.990608,-14.381426
697,2488541610,78.734833,-3.306458,-60.588627,2.204186,-0.374930,-0.392476,-33.929974,-44.546459,-14.252686
698,2488558277,78.297188,-3.220605,-61.299557,2.047157,-0.487812,-0.726688,-27.259060,-41.731297,-13.624841
699,2488574944,78.044617,-3.147452,-61.973621,1.800561,-0.572226,-1.099306,-15.981837,-39.646065,-12.680079
700,2488591611,78.038193,-3.092943,-62.627876,1.471018,-0.578864,-1.516549,-1.111162,-38.691807,-11.436829
701,2488608278,78.304192,-3.065465,-63.279934,1.202915,-0.500429,-1.788056,15.264826,-38.917828,-9.743736
702,2488624945,78.806442,-3.076077,-63.931507,1.072985,-0.402470,-1.819812,29.442083,-39.405106,-7.250237