sep=,
DeviceTag:,DOT5
FirmwareVersion:,3.0.0
AppVersion:,2023.6.0
SyncStatus:,Synced
OutputRate:,60Hz
FilterProfile:,Dynamic
Measurement Mode:,Custom modes - custom mode1
StartTime: ,2026-06-01_12:15:10_975 GMT+2
© Movella Technologies B. V. 2005-2026

PacketCounter,SampleTimeFine,Euler_X,Euler_Y,Euler_Z,FreeAcc_X,FreeAcc_Y,FreeAcc_Z,Gyr_X,Gyr_Y,Gyr_Z
1,932205532,66.485603,37.878136,169.806458,-0.418943,-0.001700,0.113554,-1.605391,-0.881141,0.540114
2,932222199,66.490555,37.883247,169.838287,-0.328427,-0.015185,0.103832,-0.687803,-0.959336,0.412870
3,932238866,66.508766,37.890804,169.874573,-0.344949,-0.045962,0.125149,-0.055720,-0.708370,0.362490
4,932255533,66.511963,37.898628,169.908905,-0.343214,-0.022635,0.147747,-0.885930,-0.786054,0.310887
5,932272200,66.493088,37.910080,169.939560,-0.292945,0.012210,0.109290,-2.075717,-0.860446,0.042088
6,932288867,66.476669,37.921940,169.972504,-0.207446,0.019764,0.067983,-2.012352,-0.749901,0.062937
7,932305534,66.470665,37.925735,170.007004,-0.194596,0.033632,0.069809,-1.442341,-0.877530,0.538014
8,932322201,66.476952,37.919727,170.037064,-0.183142,-0.001935,0.066839,-0.544078,-1.304993,0.992486
9,932338868,66.477562,37.908104,170.053787,-0.262905,-0.059741,0.158570,-0.390222,-2.018114,1.050358
10,932355535,66.456894,37.902756,170.051086,-0.294770,-0.003024,0.163410,-0.952767,-2.710579,0.338401
11,932372202,66.437447,37.903999,170.034622,-0.290310,0.003791,0.196404,-0.371064,-3.149516,-0.283737
12,932388869,66.432480,37.909698,170.015518,-0.290659,0.085620,0.193699,0.594528,-3.158148,-0.579206
13,932405536,66.435738,37.915665,169.990341,-0.252133,0.051269,0.155831,1.311402,-3.414519,-0.708165
14,932422203,66.449852,37.920902,169.965927,-0.342939,0.017663,0.171926,1.936942,-3.399651,-0.652804
15,932438870,66.439995,37.925606,169.934753,-0.330357,0.073060,0.185478,0.744593,-3.704865,-0.752437
16,932455537,66.424538,37.930828,169.906860,-0.338988,0.064350,0.176378,0.290634,-3.551073,-0.717988
17,932472204,66.401077,37.934673,169.879776,-0.329988,0.081350,0.167536,-0.220064,-3.548166,-0.628126
18,932488871,66.377731,37.939823,169.851471,-0.308628,0.078856,0.127851,-0.167277,-3.569988,-0.722509
19,932505538,66.367104,37.947563,169.821030,-0.282475,0.055406,0.108768,0.672596,-3.598162,-0.905499
20,932522205,66.368149,37.951164,169.789597,-0.280419,0.064378,0.106426,1.410959,-3.741849,-0.696742
21,932538872,66.369041,37.946617,169.761047,-0.311359,0.032007,0.178962,1.295868,-3.812784,-0.194055
22,932555539,66.340050,37.942341,169.725616,-0.275947,0.095911,0.174742,-0.244166,-4.104678,-0.339202
23,932572206,66.305328,37.937450,169.694351,-0.262097,0.098508,0.157726,-0.741590,-3.939285,-0.227723
24,932588873,66.267540,37.928997,169.663742,-0.274634,0.183709,0.188865,-0.950500,-3.995414,-0.019683
25,932605540,66.217583,37.913353,169.626404,-0.431679,0.159027,0.385967,-1.429829,-4.460862,0.246631
26,932622207,66.118835,37.887962,169.559540,-0.706053,0.296903,0.545423,-3.273509,-5.975815,0.213629
27,932638874,66.015938,37.865620,169.465698,-0.761881,0.554796,0.724678,-2.527667,-7.070400,-0.480085
28,932655541,66.021690,37.867344,169.336319,-1.239195,0.595723,1.108467,5.299083,-8.019594,-2.488210
29,932672208,66.187157,37.918671,169.124374,-1.913099,0.430282,1.802379,17.926723,-10.389335,-6.786237
30,932688875,66.471832,38.060978,168.769119,-2.505554,0.408990,2.466151,30.387711,-14.420236,-14.476507
31,932705542,66.659462,38.327404,168.200363,-3.086617,0.417587,3.010876,32.543488,-20.711647,-25.251133
32,932722209,66.550240,38.722237,167.379501,-2.966589,0.466534,2.916446,24.306505,-28.419518,-36.967468
33,932738876,66.157707,39.209919,166.325241,-2.485492,0.404035,2.477139,16.406563,-35.778641,-46.463234
34,932755543,65.577934,39.740276,165.075439,-1.730193,0.461960,1.580122,13.062929,-42.276817,-52.642586
35,932772210,64.992226,40.273289,163.718872,-0.695759,0.774316,0.572447,17.356043,-45.725868,-55.059830
36,932788877,64.552734,40.781361,162.369461,0.658944,0.832409,-0.187954,26.410276,-45.141842,-53.748352
37,932805544,64.337280,41.243538,161.071320,1.329652,0.411222,-0.162879,38.352402,-43.525455,-50.310799
38,932822211,64.240608,41.661373,159.774628,2.132774,0.318306,-0.033580,45.868050,-44.132202,-47.821629
39,932838878,64.095413,42.030350,158.465027,2.955209,0.597320,0.177513,43.873928,-45.511620,-45.358723
40,932855545,63.756859,42.385868,157.134598,3.820523,0.970968,0.620992,33.482574,-46.210064,-45.066090
41,932872212,63.084400,42.772018,155.711914,4.921045,0.444134,0.827216,17.577110,-48.321644,-48.749886
42,932888879,61.999664,43.189690,154.114548,5.272317,-0.568812,1.074219,0.430411,-53.138420,-54.456924
43,932905546,60.299171,43.626415,152.170425,5.811388,-1.773357,1.289557,-21.689196,-64.058868,-63.711090
44,932922213,57.942844,44.112492,149.846451,6.324957,-2.537779,1.018767,-44.560707,-73.789284,-76.470604
45,932938880,55.018227,44.628845,147.048859,6.510925,-2.937069,1.066994,-57.902267,-85.413239,-91.911926
46,932955547,51.531891,45.139416,143.819885,6.412508,-3.634607,1.009517,-72.257713,-94.201294,-106.435822
47,932972214,47.559799,45.536167,140.315369,6.885704,-4.533258,0.254013,-88.550873,-99.524124,-113.788612
48,932988881,43.484482,45.737865,136.858200,8.245374,-5.478921,-0.256507,-96.005516,-97.519051,-110.006050
49,933005548,39.788525,45.765266,133.802292,9.631045,-6.694817,0.480217,-90.207222,-86.300323,-96.445648
50,933022215,36.752655,45.605469,131.413773,10.057822,-6.777884,0.096770,-79.405502,-72.083359,-72.368584
51,933038882,34.709606,45.203320,129.995956,9.725327,-6.385835,-0.217193,-61.800747,-57.033401,-34.074863
52,933055549,33.657856,44.434937,129.671158,8.128996,-5.726492,-0.846301,-49.154182,-48.493546,14.814230
53,933072216,33.226860,43.200085,130.424850,5.781185,-4.856241,-1.560313,-56.947800,-46.447231,68.428101
54,933088883,33.012249,41.416874,132.114685,3.656862,-3.957389,-2.352303,-80.899551,-51.255527,121.637909
55,933105550,32.747379,39.020340,134.561279,2.225383,-2.489236,-3.395437,-110.458450,-62.519535,172.581970
56,933122217,32.450699,35.939548,137.625992,0.719082,-0.873017,-4.599565,-129.476440,-79.710228,222.903534
57,933138884,32.074154,32.121941,141.212585,-1.325623,0.996670,-5.808178,-142.820724,-101.066277,273.454132
58,933155551,31.572359,27.484333,145.319321,-3.819490,3.475518,-6.987433,-152.379822,-126.203758,328.766144
59,933172218,31.239565,22.252659,149.832092,-7.885482,6.782665,-7.295752,-133.658401,-142.354355,373.595093
60,933188885,31.048525,16.739666,154.704529,-14.649849,11.264277,-5.739604,-108.870613,-142.955048,407.269135
61,933205552,30.963976,11.474257,159.621414,-21.524166,13.371130,-2.295281,-76.816902,-125.731323,408.271240
62,933222219,31.217140,6.993316,164.064011,-24.049704,11.411850,1.570494,-27.427979,-96.707443,364.397614
63,933238886,31.750544,3.657135,167.488266,-18.818691,5.861212,3.639966,13.100806,-66.216354,279.214050
64,933255553,32.194073,1.622536,169.400299,-9.627230,1.314463,2.837741,21.508532,-45.229446,162.051132
65,933272220,32.324844,0.973573,169.266907,-4.899927,-0.361279,1.577988,8.211720,-39.541767,14.199047
66,933288887,32.623222,1.586352,167.278793,-5.776154,0.359498,0.766217,20.738815,-35.350906,-120.171700
67,933305554,33.064014,3.053891,164.311234,-8.996638,0.264597,1.334972,33.807884,-24.855572,-197.051102
68,933322221,32.915634,5.078319,160.529205,-12.696133,0.598834,1.968811,7.327943,-23.719719,-255.824249
69,933338888,32.111904,7.316058,155.982590,-14.950154,3.712986,0.689645,-18.641485,-34.913425,-300.702148
70,933355555,31.325994,9.643035,151.009048,-15.275405,5.935956,-0.278974,-3.050737,-38.767048,-324.327515
71,933372222,30.738789,11.967825,145.960068,-13.815858,6.081772,-0.076102,21.615101,-36.218491,-326.770172
72,933388889,30.238142,14.165303,141.103302,-10.457052,5.771646,-0.683040,35.848492,-32.718544,-311.418854
73,933405556,29.754093,16.202965,136.577667,-7.477560,5.160155,-0.869949,42.044609,-27.431479,-288.019653
74,933422223,29.166613,17.969330,132.580032,-4.860701,4.148663,-0.350633,35.157314,-22.770931,-251.713272
75,933438890,28.618059,19.427595,129.281357,-2.322282,3.443899,-0.028801,30.440544,-16.254189,-206.393616
76,933455557,28.358709,20.604744,126.915527,-0.111388,2.468800,0.133212,32.908794,-3.817420,-150.907745
77,933472224,28.637730,21.502420,125.678146,2.398232,1.105680,0.128828,43.286499,11.997270,-86.592789
78,933488891,29.607283,22.167400,125.694565,3.970189,-0.637884,0.545238,57.689022,33.013153,-18.624069
79,933505558,31.304977,22.599695,126.968193,5.692499,-2.253985,0.950788,72.655022,55.877056,47.756039
80,933522225,33.833069,22.805193,129.364807,7.772250,-3.349510,1.088896,96.090698,79.493706,105.153969
81,933538892,37.489136,22.766069,132.729126,9.092308,-4.280323,0.296874,141.084091,104.273354,152.578842
82,933555559,42.043797,22.471670,136.858383,7.699268,-5.008188,0.419962,177.876465,130.387131,187.102371
83,933572226,46.537804,21.963196,141.405563,6.226744,-6.488729,1.716499,166.370102,152.192612,202.103897
84,933588893,50.287243,21.357410,145.969864,6.745185,-7.508068,2.396838,123.820564,163.874939,196.128799
85,933605560,53.064781,20.886688,150.086243,8.459739,-6.517371,2.666957,77.647614,160.834244,165.038223
86,933622227,55.036991,20.751726,153.432388,11.026129,-4.557512,2.521844,47.024895,144.744186,116.764595
87,933638894,56.524746,21.078634,155.886795,12.408849,-3.062893,1.903455,36.781315,122.340805,61.213905
88,933655561,57.493984,21.829329,157.405106,12.446240,-2.589739,1.504741,24.949919,93.189110,8.493690
89,933672228,57.674721,22.905443,157.943481,11.771519,-2.075330,0.792456,-1.314812,57.363277,-38.355026
90,933688895,57.066727,24.231451,157.623871,11.239551,-1.393759,0.202104,-28.660185,25.618052,-76.311470
91,933705562,55.928703,25.804024,156.641342,10.576125,-1.389532,-0.137688,-43.183395,5.042741,-107.963341
92,933722229,54.266796,27.685604,154.989655,9.718568,-2.239036,0.475278,-54.928913,-10.494049,-142.991730
93,933738896,52.207279,29.618015,152.865677,9.512869,-2.799808,0.594110,-62.259087,-22.723503,-159.552322
94,933755563,49.992512,31.421688,150.452362,8.962831,-3.328465,1.517069,-59.135323,-31.657248,-162.256561
95,933772230,47.703995,32.960171,147.893936,8.024964,-4.134019,2.637130,-55.308529,-39.625000,-154.673126
96,933788897,45.564915,34.139309,145.329987,7.001773,-4.669896,3.066593,-43.101067,-47.190456,-139.126068
97,933805564,43.935787,34.889156,142.945770,5.761692,-4.796070,3.366733,-16.472567,-53.609219,-115.029251
98,933822231,42.840778,35.177135,140.850983,3.860607,-5.077667,3.774642,6.667024,-60.724644,-86.288315
99,933838898,41.939819,34.936546,139.167206,2.062675,-5.175962,3.346731,4.187138,-69.012245,-50.967827
100,933855565,40.993584,34.095139,138.048447,0.703665,-4.654680,2.308257,-18.523453,-77.066360,-7.632549
101,933872232,39.947247,32.584301,137.573288,0.050671,-3.082304,0.735487,-46.898045,-87.043907,41.107018
102,933888899,38.866203,30.443062,137.741058,-0.607708,-1.150747,-1.193373,-69.911751,-96.452332,88.577896
103,933905566,37.844315,27.732496,138.606674,-1.804179,0.881827,-2.424379,-86.351959,-102.002197,136.898987
104,933922233,36.682693,24.472540,140.155502,-3.053647,2.882266,-2.792238,-110.371468,-107.759254,185.230209
105,933938900,35.211342,20.724747,142.330933,-4.875643,4.649054,-2.862717,-138.217255,-113.898399,229.937256
106,933955567,33.388008,16.506313,145.238220,-7.014680,6.996047,-2.730474,-164.840134,-118.485229,279.564331
107,933972234,30.929924,12.090906,148.749161,-9.880725,9.534739,-1.964104,-199.227203,-118.124451,314.186340
108,933988901,27.790318,7.788080,152.679733,-12.814830,10.965321,-0.968550,-228.751999,-113.562706,329.396210
109,934005568,25.001516,3.912671,156.679932,-14.518683,10.543916,-0.945497,-191.483322,-104.538040,317.560089
110,934022235,24.017677,0.888792,160.208878,-15.813084,8.904651,-0.755891,-67.682098,-79.705505,268.014374
111,934038902,24.697691,-0.956985,162.857346,-14.088643,5.939371,1.248961,41.075607,-37.722752,190.673630
112,934055569,25.441618,-1.601883,164.420044,-10.073992,1.758895,3.037134,46.919136,2.319172,101.518761
113,934072236,25.444988,-1.195990,163.950790,-8.001561,-2.292797,1.828540,-0.297250,7.571706,-35.676517
114,934088903,25.190123,-0.003156,161.679520,-9.212673,0.085173,-0.800669,-16.548107,4.100830,-153.586258
115,934105570,25.566673,1.882426,158.342194,-11.184799,2.712476,-1.158797,26.011232,14.078436,-229.190247
116,934122237,26.749950,4.226791,154.474472,-13.388355,3.936020,-0.367019,83.442116,21.764536,-269.840759
117,934138904,27.972874,6.888165,150.301865,-15.256270,4.294798,0.535559,97.660675,24.966961,-294.549438
118,934155571,28.533007,9.652395,145.949799,-14.312821,4.295867,0.022225,71.193161,21.453869,-306.012299
119,934172238,28.452959,12.382223,141.620926,-11.174751,3.883194,-1.022790,44.841995,20.022327,-302.105560
120,934188905,28.198774,15.033785,137.451141,-8.440561,3.874492,-1.554634,44.013237,22.417646,-289.374756
121,934205572,27.916601,17.470148,133.705673,-5.404217,3.816575,-1.625134,45.904972,25.236242,-259.105896
122,934222239,27.626541,19.603024,130.564880,-2.815164,2.549352,-0.539875,42.422306,27.705151,-217.694489
123,934238906,27.367390,21.366249,128.227432,-0.123283,0.798742,0.367033,33.430172,30.914400,-165.375458
124,934255573,27.329073,22.756634,126.863838,2.591386,-0.749110,0.853029,28.320147,36.991814,-105.675896
125,934272240,27.676554,23.784264,126.506660,4.742067,-2.240753,0.895852,29.208918,43.314201,-45.938721
126,934288907,28.586252,24.502768,127.141571,7.108836,-3.229451,0.696315,38.905128,52.108955,10.329523
127,934305574,30.408085,25.030542,128.724792,9.746705,-3.544946,0.473463,69.435928,67.717049,59.492977
128,934322241,33.262550,25.448723,131.121460,11.688374,-3.032792,0.562359,109.886879,87.593704,97.290314
129,934338908,37.107368,25.825251,134.084091,12.371695,-2.273073,-0.139282,153.730774,108.456520,117.997505
130,934355575,41.741062,26.202446,137.502716,11.941076,-1.201677,-0.288073,188.023071,132.181427,128.080994
131,934372242,46.775555,26.536112,141.269608,10.082596,-1.265732,0.560424,201.666214,153.277115,131.128586
132,934388909,51.230553,26.894428,144.930603,7.581222,-3.681903,2.716272,168.582260,159.788849,112.573441
133,934405576,53.688385,27.519161,147.769226,5.949577,-6.498176,4.905523,69.699730,140.514526,62.663975
134,934422243,53.698032,28.487093,149.467789,6.744628,-7.711473,4.250890,-47.137241,104.453369,6.584082
135,934438910,51.895397,29.677691,150.049393,7.965671,-6.842248,1.889309,-124.979553,65.028358,-38.332031
136,934455577,49.232414,30.933025,149.677124,9.049140,-4.951684,-0.193649,-148.363342,30.480562,-70.271332
137,934472244,46.612434,32.146656,148.651794,9.796805,-3.065172,-1.231948,-124.866325,7.393215,-89.004898
138,934488911,44.461193,33.369938,147.127365,9.335781,-2.318060,-0.657071,-79.420502,-5.989197,-106.051369
139,934505578,42.660629,34.565510,145.272339,8.740988,-3.171412,0.230103,-45.674656,-14.148461,-116.084244
140,934522245,40.864086,35.621624,143.138306,7.747258,-4.172400,0.719378,-33.997562,-25.045116,-120.084511
141,934538912,38.957191,36.448689,140.899963,7.297730,-4.617576,0.677632,-35.219116,-34.163494,-114.855507
142,934555579,37.075523,36.992817,138.762802,7.009661,-4.895297,0.703079,-36.037891,-40.145950,-100.779091
143,934572246,35.485359,37.155418,136.936584,6.645573,-5.052485,0.335793,-29.159294,-46.446262,-75.927994
144,934588913,34.364273,36.885155,135.608841,5.684001,-4.817771,0.041397,-19.102972,-52.304684,-42.529621
145,934605580,33.703060,36.163574,134.902664,4.580513,-4.234388,-0.609776,-14.253530,-57.548721,-3.636421
146,934622247,33.386322,34.969570,134.853516,3.333147,-3.362344,-1.364850,-17.083839,-63.660313,37.951424
147,934638914,33.256046,33.275784,135.428345,2.157820,-2.516464,-2.226585,-26.959677,-71.870811,80.055328
148,934655581,33.126034,31.035929,136.537018,0.921919,-1.755662,-3.109001,-43.001293,-84.274742,121.073792
149,934672248,32.808258,28.147314,138.180496,-0.237135,-0.535071,-4.044681,-67.560707,-101.385109,166.627487
150,934688915,32.186390,24.659637,140.391373,-1.986142,0.903239,-3.825845,-96.101402,-115.279945,213.012405
151,934705582,30.956808,20.627583,143.095901,-3.867439,2.758564,-3.183700,-136.033539,-130.302032,254.635132
152,934722249,29.171854,16.161173,146.228561,-6.078930,5.339411,-2.833128,-166.169281,-145.143768,288.990173
153,934738916,27.313599,11.443920,149.733887,-8.623397,8.493221,-2.289346,-161.421585,-155.205429,314.231049
154,934755583,26.013950,6.789958,153.420715,-12.203344,10.269649,-0.078378,-112.804306,-153.992462,320.831482
155,934772250,25.726564,2.565885,156.948746,-15.613169,9.940277,3.583757,-34.332447,-138.419678,300.720764
156,934788917,26.249722,-0.827373,159.916824,-16.928877,7.068693,6.040231,28.836203,-107.401947,249.543015
157,934805584,26.455931,-2.923890,161.926010,-15.780871,1.869304,7.667400,16.478302,-61.637199,164.050064
158,934822251,25.624310,-3.605669,162.378998,-12.249212,-2.214045,5.955181,-48.199303,-27.218136,42.564384
159,934838918,24.568829,-3.192750,160.887131,-10.277179,-1.243410,1.521542,-68.507256,-17.813087,-91.209900
160,934855585,24.313427,-1.985714,158.009262,-10.341025,2.908359,-0.008370,-23.022932,-7.783713,-186.789810
161,934872252,25.372217,-0.232530,154.362671,-11.292200,4.618523,1.559701,59.342140,1.206092,-242.504990
162,934888919,27.271070,1.793668,150.315475,-11.971338,5.603315,2.692308,117.231033,-1.040042,-271.368927
163,934905586,29.514553,3.928514,146.032257,-11.296629,5.938195,1.510279,147.381622,-11.707965,-286.566559
164,934922253,31.597107,6.164789,141.611893,-10.244456,4.944097,0.351982,148.199356,-21.104654,-295.603699
165,934938920,33.259174,8.394835,137.355988,-8.538945,4.784891,-0.357099,131.982864,-25.226730,-285.456879
166,934955587,34.552998,10.545059,133.441360,-6.673906,4.532625,-0.493522,116.164497,-24.495865,-264.177582
167,934972254,35.446121,12.533538,129.967850,-4.943838,4.044330,-0.113325,95.159912,-21.722630,-235.651199
168,934988921,35.909023,14.313475,126.986061,-3.112827,3.262188,0.009659,69.182144,-17.075430,-203.609390
169,935005588,35.960499,15.802452,124.575546,-1.672542,1.619459,0.086924,40.532425,-11.964049,-165.490417
170,935022255,35.782639,16.882902,122.861664,0.747826,-0.327666,0.490530,18.124172,-7.631406,-117.932823
171,935038922,35.525452,17.552757,121.841354,3.050365,-2.310091,1.119235,2.547555,-3.776250,-70.926003
172,935055589,35.529816,17.916700,121.479263,6.156550,-3.786290,1.085554,6.741687,3.384403,-29.507105
173,935072256,36.446438,18.172104,121.791779,9.781810,-4.321590,0.181001,49.064613,20.497353,5.455285
174,935088923,38.808990,18.436794,122.824181,12.679166,-3.233635,-0.837651,122.195503,46.087437,36.932556
175,935105590,42.862885,18.753901,124.505882,14.202397,-1.714691,-1.460956,210.977615,74.520927,59.988541
176,935122257,48.425896,19.073126,126.705093,14.701541,-0.941407,-1.941366,290.949066,100.234329,73.676567
177,935138924,54.975040,19.396442,129.267868,12.399263,-1.359660,-2.088508,342.254791,123.548996,74.885002
178,935155591,61.161175,19.723904,131.803955,8.021451,-3.542296,-0.048048,320.231140,129.643692,59.297749
179,935172258,65.329201,20.092430,133.769150,5.116537,-6.540785,3.712552,209.993301,106.468117,30.299280
180,935188925,66.418945,20.482533,134.822739,4.867661,-7.608238,5.334640,43.558537,61.171421,3.025195
181,935205592,64.463005,20.820576,134.920853,5.526453,-6.701199,3.604481,-119.334541,10.918878,-15.984900
182,935222259,60.414806,21.036514,134.266281,6.475927,-5.215182,0.529074,-228.758148,-29.056669,-28.264818
183,935238926,55.626926,21.141684,133.145187,7.877412,-4.026587,-2.111991,-262.952637,-52.436802,-38.375122
184,935255593,51.281734,21.275530,131.868683,9.379654,-3.663893,-3.553542,-232.874023,-55.127632,-48.729740
185,935272260,47.925785,21.529135,130.276215,9.819399,-3.904817,-2.881643,-166.342194,-60.440449,-68.972122
186,935288927,45.567535,21.817400,128.570328,9.156576,-4.228686,-1.649573,-103.532089,-59.984547,-77.474487
187,935305594,43.966339,22.037394,127.007095,8.111103,-4.439857,-0.818578,-60.868496,-54.475651,-70.746811
188,935322261,42.777786,22.136896,125.751022,6.930056,-4.883244,-0.469538,-42.785431,-46.203079,-54.516514
189,935338928,41.649193,22.078531,124.867363,5.628172,-5.016484,-0.170599,-47.559956,-38.198738,-33.665688
190,935355595,40.399086,21.752729,124.470993,4.609539,-4.747167,-0.392707,-65.918961,-31.844456,-3.433626
191,935372262,38.867229,21.148891,124.615997,3.508965,-3.888269,-0.267667,-94.874413,-25.368324,29.736698
192,935388929,37.116592,20.235559,125.358627,2.819493,-3.000062,-0.818588,-120.558594,-20.173969,66.984123
193,935405596,35.374699,18.971943,126.715462,2.094913,-1.702634,-1.628608,-131.597168,-18.456074,107.082428
194,935422263,33.836922,17.331015,128.673035,1.433136,0.278069,-2.192173,-128.623474,-20.306421,148.185852
195,935438930,32.978424,15.328581,131.208954,0.891211,2.803912,-3.028865,-94.063423,-22.547890,188.437393
196,935455597,33.245995,13.044787,134.308792,-0.551401,5.653153,-3.101732,-29.323086,-18.899979,226.271729
197,935472264,34.745533,10.465052,138.042404,-3.353086,7.623815,-2.646518,44.495449,-8.292528,268.744446
198,935488931,36.859673,7.646120,142.266495,-8.116454,8.348753,-0.649840,87.080917,6.693032,302.288269
199,935505598,38.758286,4.714297,146.707901,-13.086579,8.284466,1.252315,85.340698,20.929735,317.477905
200,935522265,39.873985,1.846125,151.113953,-16.961065,7.668743,3.859282,51.953259,31.617748,313.518127
201,935538932,39.728008,-0.639154,155.060959,-17.165676,5.362812,6.872398,-11.077749,34.574631,277.641663
202,935555599,38.222908,-2.417859,158.026489,-14.421234,3.155925,8.687084,-85.373398,26.472464,205.643585
203,935572266,35.995586,-3.199028,159.432922,-10.780837,2.061018,5.601197,-129.347504,11.056602,95.718788
204,935588933,34.222225,-3.087149,159.043518,-8.392374,2.315159,1.542844,-107.544685,-10.316444,-22.741264
205,935605600,33.967251,-2.345478,157.153656,-7.581815,4.395011,-0.905978,-20.543789,-29.012472,-118.545708
206,935622267,35.414516,-1.223943,154.314499,-8.782382,5.545767,-0.347992,81.625008,-43.942329,-178.118912
207,935638934,37.996445,0.218497,150.888672,-10.446684,5.161191,0.566252,153.158203,-55.831230,-216.369461
208,935655601,41.125935,1.868412,147.093918,-11.368089,4.549447,0.119872,191.910950,-71.035316,-238.442566
209,935672268,44.474319,3.605272,143.149445,-11.265818,4.135264,-0.708711,212.155167,-86.524742,-244.183121
210,935688935,47.497105,5.275656,139.254547,-10.114162,4.043811,-0.256118,199.388901,-100.290199,-233.920380
211,935705602,49.833172,6.841966,135.495361,-8.565845,3.708999,-0.097971,163.887619,-108.713493,-218.670029
212,935722269,51.632328,8.291025,131.984451,-6.895895,3.673838,-0.593621,135.592255,-109.013817,-199.468277
213,935738936,53.024673,9.625297,128.882126,-4.991056,3.447936,-0.196788,112.415047,-98.993484,-175.736023
214,935755603,53.945595,10.861667,126.292671,-3.174747,2.559719,0.647989,82.765907,-81.127106,-150.608124
215,935772270,54.521820,12.011429,124.298874,-1.592542,0.825977,0.543798,58.166183,-57.216476,-124.527489
216,935788937,54.900635,13.066731,123.023880,0.078897,-0.854189,0.520872,39.204285,-26.783226,-94.848328
217,935805604,55.154057,14.018682,122.505455,1.588238,-2.391732,-0.034689,22.353895,5.537985,-64.160179
218,935822271,55.520508,14.897191,122.718559,3.188802,-3.790539,-0.537404,18.663853,37.730824,-36.330158
219,935838938,56.469177,15.713851,123.651054,5.196950,-4.874707,-1.360644,42.030109,69.694946,-10.445516
220,935855605,58.142681,16.495802,125.166756,7.087685,-5.282856,-1.290816,75.076355,96.410889,7.718289
221,935872272,60.335049,17.303755,127.124054,8.416884,-5.137464,-0.126199,97.314758,118.872665,15.840707
222,935888939,62.650055,18.095566,129.371460,9.930176,-5.038084,0.541969,97.840866,133.067581,19.612028
223,935905606,64.585663,18.852816,131.659622,10.788126,-6.223161,0.605547,72.606506,134.334335,17.232155
224,935922273,65.675217,19.692017,133.541504,10.748769,-6.919013,0.231568,28.118484,115.355476,-0.753640
225,935938940,65.738121,20.683455,134.734833,11.460323,-6.166831,-0.497672,-20.890083,83.194099,-26.432919
226,935955607,64.967537,21.780634,135.224091,12.018066,-4.646574,-1.498375,-56.793995,49.787651,-48.247227
227,935972274,63.794350,22.877983,135.093338,11.582676,-3.715191,-1.779843,-67.313042,19.384310,-62.296093
228,935988941,62.565430,23.912981,134.380981,10.452375,-3.230912,-1.214516,-56.641632,-9.535295,-72.875885
229,936005608,61.473747,24.894058,133.169266,9.602907,-3.945060,-0.366012,-35.318649,-33.402069,-82.772018
230,936022275,60.388481,25.872602,131.506287,8.578548,-4.071233,0.861068,-22.180006,-52.820919,-94.810448
231,936038942,59.143215,26.856972,129.500854,7.737335,-3.687466,1.993506,-21.096525,-65.969437,-104.984428
232,936055609,57.491089,27.804602,127.316406,7.020459,-3.401910,2.880699,-38.750721,-71.787209,-109.188034
233,936072276,55.421013,28.613083,125.124886,6.458060,-3.589063,2.180470,-61.830406,-72.342377,-104.092674
234,936088943,53.247875,29.191977,123.158485,6.471442,-4.130323,1.658046,-73.135178,-66.235870,-88.064819
235,936105610,51.174538,29.457453,121.629402,6.276353,-4.104578,1.702719,-79.231949,-56.030029,-61.215961
236,936122277,49.152760,29.369677,120.718445,5.378619,-3.632545,1.745665,-94.220695,-42.516071,-26.061298
237,936138944,47.255192,28.882593,120.522034,4.869797,-3.158059,0.910972,-107.867455,-29.739433,15.330177
238,936155611,45.713612,27.952345,121.046074,4.232744,-2.733611,-0.443265,-107.201172,-20.968409,59.926365
239,936172278,44.546761,26.580385,122.194206,3.220737,-1.978101,-1.867302,-101.307167,-17.272713,101.948692
240,936188945,43.767563,24.753860,123.943596,2.109833,-0.908732,-2.568654,-91.953735,-15.310806,144.623734
241,936205612,43.331409,22.487150,126.296768,0.931089,1.083093,-3.071346,-82.482170,-12.027658,187.858841
242,936222279,42.973442,19.824293,129.243073,-0.870298,3.291603,-3.060183,-85.024101,-6.367616,229.931580
243,936238946,42.581116,16.831469,132.733688,-3.023973,5.264331,-3.486778,-89.147751,0.680036,268.247986
244,936255613,42.688354,13.663154,136.636795,-5.666751,6.590366,-4.891150,-54.925533,10.670313,295.318878
245,936272280,43.503407,10.331894,140.803223,-9.193434,7.534883,-5.342397,-2.873142,18.629057,315.424500
246,936288947,44.348888,6.754863,145.052872,-12.532132,7.877702,-2.700423,13.024179,17.892990,330.784424
247,936305614,44.203247,3.139690,149.130341,-15.325566,7.499732,2.713587,-29.619843,12.417084,326.211548
248,936322281,43.325829,0.105564,152.649109,-16.666691,6.134432,5.944262,-58.389320,12.056922,278.595764
249,936338948,42.238136,-2.013174,155.223953,-14.908645,4.010058,6.011651,-62.472416,9.156045,199.969193
250,936355615,41.402374,-2.987207,156.361481,-11.726261,1.550828,3.945742,-46.974472,-0.544994,90.028290
251,936372282,41.121456,-2.831065,155.679550,-9.387865,1.544144,1.512434,-18.748196,-22.355333,-36.658962
252,936388949,41.600117,-1.818609,153.424866,-9.196145,4.980517,1.038488,23.401651,-46.171471,-141.359482
253,936405616,42.972755,-0.071420,150.212311,-10.420053,7.247779,2.209677,79.318779,-54.580959,-212.881210
254,936422283,44.990273,2.280839,146.568176,-12.029710,5.810566,2.920300,125.369980,-52.727070,-255.091446
255,936438950,46.933777,4.890302,142.804779,-12.172025,5.183317,2.526543,130.820770,-55.654926,-269.001526
256,936455617,48.307758,7.583542,139.026855,-10.604160,5.823705,0.887448,107.158302,-60.018471,-271.047333
257,936472284,49.233707,10.310975,135.425781,-8.615134,5.929940,0.454389,89.260323,-55.148212,-263.546204
258,936488951,50.020187,13.026603,132.188965,-6.387162,5.761556,0.333255,86.569199,-41.833397,-247.148163
259,936505618,50.897823,15.719556,129.498520,-3.960835,5.240347,0.456968,92.829597,-20.200325,-223.982178
260,936522285,51.863003,18.347210,127.503593,-1.944136,3.670193,0.607438,93.074043,6.516023,-194.446381
261,936538952,52.844662,20.846498,126.266174,-0.630247,1.808553,1.164161,83.909996,33.741348,-161.296356
262,936555619,53.725471,23.168018,125.758438,0.230131,0.160277,1.381351,64.380600,58.161602,-128.380051
263,936572286,54.487099,25.330191,125.971954,1.104654,-1.120185,1.140971,40.561810,83.043915,-98.077827
264,936588953,55.319172,27.325806,126.926079,2.229244,-2.409645,0.371363,24.666193,108.340744,-68.284782
265,936605620,56.476265,29.133200,128.571671,3.619076,-3.986454,0.069900,22.860052,130.343033,-40.827454
266,936622287,57.938091,30.724144,130.679123,4.894401,-5.698367,0.562782,24.765224,141.320312,-20.687065
267,936638954,59.552994,32.118637,132.943863,6.362881,-6.386509,0.665783,26.204351,140.032364,-11.145183
268,936655621,61.151142,33.356411,135.224350,7.504006,-6.277827,1.065933,22.053446,134.249786,-7.380347
269,936672288,62.261227,34.481766,137.377182,8.168145,-5.814597,1.874692,-5.301132,123.868950,-8.404510
270,936688955,62.367298,35.521339,139.282303,8.844566,-5.642538,1.907589,-59.014393,109.372345,-11.477102
271,936705622,61.351135,36.411655,140.693558,10.722449,-5.578912,0.809720,-110.500618,83.109695,-14.516436
272,936722289,59.883099,37.012550,141.556351,13.247173,-4.579597,-1.225703,-118.826004,51.330025,-10.778055
273,936738956,58.392025,37.345604,141.884033,13.283022,-3.587375,-2.363588,-101.135742,21.175797,-8.824422
274,936755623,56.991634,37.509941,141.679321,11.351752,-3.466271,-1.924207,-76.344528,-5.499893,-13.240947
275,936772290,55.602520,37.580563,140.932510,9.812625,-3.417625,-1.242882,-55.819405,-29.731760,-22.919096
276,936788957,54.394653,37.607952,139.716812,9.092458,-3.132172,-1.241966,-27.747084,-48.928715,-34.169758
277,936805624,53.601276,37.636971,138.182983,8.761245,-3.234255,-0.918159,8.806340,-60.475426,-43.917206
278,936822291,53.211712,37.692413,136.446518,8.221204,-3.582935,-0.364859,40.520958,-66.766090,-51.493732
279,936838958,53.027298,37.713676,134.664429,7.300524,-3.759793,0.104097,54.563316,-69.436401,-51.441490
280,936855625,52.779018,37.643505,132.994858,6.582173,-4.007257,0.827395,46.570854,-68.309792,-44.106697
281,936872292,52.266399,37.476288,131.499176,5.753938,-4.337523,1.020518,24.191166,-65.093170,-34.963055
282,936888959,51.462105,37.129688,130.230545,5.225796,-4.341442,0.804104,-1.883088,-63.000725,-20.671024
283,936905626,50.528229,36.564838,129.341675,4.544002,-4.314756,0.763192,-23.804070,-57.032436,-0.160299
284,936922293,49.575768,35.726292,128.904327,3.893921,-3.775107,0.730556,-41.420750,-51.091621,25.330513
285,936938960,48.742603,34.588299,128.990601,3.115382,-2.801166,0.223424,-52.721294,-43.995094,54.789280
286,936955627,48.017967,33.110218,129.612656,2.224859,-1.964037,-0.199430,-64.018089,-38.275513,87.252480
287,936972294,47.503796,31.216967,130.716949,1.288702,-1.820219,-1.444984,-65.873177,-37.380257,122.167389
288,936988961,48.071854,28.914469,132.175583,0.967379,-1.120579,-3.832800,-9.526747,-39.262215,153.569107
289,937005628,50.295460,26.264120,134.003006,-0.419587,0.990790,-4.502483,82.839478,-32.932648,184.223175
290,937022295,53.250813,23.364185,136.215851,-2.986661,3.387024,-2.258373,121.776344,-15.520118,211.610489
291,937038962,55.250393,20.279495,138.678925,-5.425469,4.374374,0.175611,65.224083,0.696980,230.700623
292,937055629,55.118740,17.003704,141.184540,-7.103188,4.207724,0.910830,-55.724075,2.227621,243.022018
293,937072296,53.121368,13.494282,143.677994,-8.226828,4.278898,-0.299115,-158.909805,-8.962302,255.546173
294,937088963,50.970242,9.959685,146.163406,-9.828108,5.308090,-1.657883,-159.094330,-17.800968,257.358643
295,937105630,49.738667,6.494460,148.736298,-11.788586,7.313879,-0.561918,-95.732277,-17.505299,257.884857
296,937122297,49.123734,3.505585,151.182022,-12.639582,7.744392,2.584721,-49.453941,-8.078769,231.594589
297,937138964,48.310421,1.429856,153.051453,-11.782823,5.785762,4.515884,-53.402031,-0.464371,167.818207
298,937155631,47.331051,0.494930,153.902985,-10.259779,3.640574,3.439282,-59.402763,-2.316361,76.160500
299,937172298,47.102299,0.630540,153.601883,-9.356582,3.048068,0.641692,-13.334934,-10.233921,-17.957716
300,937188965,48.571079,1.611264,152.298447,-9.550458,3.649054,-0.571458,89.856613,-20.960278,-95.824852
301,937205632,51.400730,3.149053,150.283569,-9.614573,4.090632,0.442918,174.975266,-35.692780,-148.069366
302,937222299,54.428417,5.078852,147.668533,-10.369770,3.778174,2.054289,193.067505,-57.540833,-186.483765
303,937238966,56.892441,7.270566,144.535141,-11.375666,3.599849,2.361229,168.204193,-82.681702,-213.760025
304,937255633,58.523754,9.599304,141.068359,-11.284895,3.931681,1.674476,128.536880,-101.819214,-227.767227
305,937272300,59.523384,12.000123,137.531525,-10.083207,4.662149,0.575241,99.898773,-107.112572,-230.520279
306,937288967,60.133991,14.437647,134.127533,-7.810286,4.986994,-0.121495,83.502579,-100.916260,-226.100418
307,937305634,60.233143,16.868324,130.974701,-5.590802,4.741376,0.473422,57.161575,-88.049957,-216.844330
308,937322301,59.792282,19.282755,128.192062,-3.783644,4.267559,1.030238,25.532391,-67.586555,-204.548477
309,937338968,58.892029,21.566753,125.969849,-2.068916,3.199113,0.827229,-7.302148,-40.119984,-181.354767
310,937355635,57.735836,23.672813,124.407120,-0.693098,1.607915,0.732117,-33.127525,-9.784283,-152.755859
311,937372302,56.525570,25.645891,123.589256,0.500481,0.150144,0.357283,-51.963402,24.289604,-123.404556
312,937388969,55.678371,27.545443,123.721352,2.017110,-1.415140,0.214070,-54.204365,66.945786,-90.415085
313,937405636,55.643967,29.405546,124.907784,4.223225,-2.517806,-0.521708,-35.829563,112.118866,-56.617702
314,937422303,56.843704,31.241951,127.169739,6.422998,-2.971378,-0.962811,3.627399,156.110672,-26.257078
315,937438970,59.284534,33.012001,130.363388,7.770658,-2.950878,0.856325,44.691887,191.368301,-4.017093
316,937455637,62.131451,34.675449,134.250381,7.687109,-2.172209,1.728491,41.060856,215.231750,8.012722
317,937472304,64.529503,36.257992,138.635651,6.468364,-2.727033,1.130729,-8.642635,231.568008,11.635132
318,937488971,65.793739,37.704041,143.238556,5.761916,-3.227976,1.113034,-90.103477,234.112823,14.243547
319,937505638,65.371849,38.916687,147.626938,6.593342,-4.046011,1.196157,-188.321106,215.683807,19.456890
320,937522305,63.496895,39.780704,151.355972,9.240934,-5.413728,0.036049,-254.115524,175.959839,28.198448
321,937538972,61.041874,40.259556,154.100128,12.261415,-5.835908,-1.426242,-252.942047,122.484268,33.537781
322,937555639,58.952667,40.438984,155.787781,13.789520,-4.743288,-2.182244,-190.686432,69.705978,29.565853
323,937572306,57.844810,40.471535,156.531906,13.292680,-3.895850,-1.971984,-95.220581,27.439896,16.445599
324,937588973,57.659073,40.477875,156.324951,11.685156,-4.142629,-1.113284,-2.864167,-10.308311,-5.044462
325,937605640,57.847572,40.523685,155.247528,9.725407,-4.765437,-0.278834,53.514538,-42.632034,-28.227518
326,937622307,57.829334,40.615360,153.442139,8.139112,-5.179473,0.391706,69.577415,-69.257095,-48.124565
327,937638974,57.352177,40.730377,151.077728,7.372787,-5.099920,0.675148,64.054932,-89.667793,-63.155064
328,937655641,56.470840,40.799191,148.376205,6.929311,-4.730717,1.038167,53.187702,-103.131187,-70.136642
329,937672308,55.367203,40.787231,145.560806,6.221678,-4.360728,1.325545,44.378139,-108.852150,-70.720352
330,937688975,54.260693,40.640675,142.844391,5.615463,-4.480961,1.449471,40.157692,-108.563110,-63.650780
331,937705642,53.302967,40.301247,140.409363,4.953928,-4.526640,1.136039,37.600250,-104.232635,-48.890034
332,937722309,52.540207,39.718075,138.393082,3.997087,-4.415974,0.993194,32.248657,-97.554085,-27.599863
333,937738976,52.003681,38.838264,136.915375,3.087366,-4.077275,0.838466,24.174410,-89.120995,0.104894
334,937755643,51.714947,37.626461,136.016983,2.287846,-3.529210,0.251399,16.269800,-80.744423,31.386059
335,937772310,51.676018,36.078953,135.756393,1.322997,-2.442801,0.105935,7.275882,-69.910820,65.459702
336,937788977,51.697243,34.163567,136.164642,0.240310,-1.315317,-0.335423,-12.585593,-58.067776,102.945007
337,937805644,51.423313,31.884439,137.160660,-1.076878,-0.555044,-1.353088,-48.772488,-48.306412,138.607468
338,937822311,50.684490,29.206739,138.696045,-1.918042,0.492802,-2.041555,-90.910423,-41.818768,175.170563
339,937838978,49.672043,26.120741,140.807144,-2.755102,2.150412,-2.902515,-119.312149,-34.935272,214.395813
340,937855645,48.477619,22.591587,143.535278,-4.132615,4.403909,-3.080594,-138.919678,-28.542631,258.008362
341,937872312,47.019505,18.762646,146.783417,-6.038610,6.622281,-2.997836,-156.035126,-21.986004,292.975250
342,937888979,45.339474,14.772101,150.402542,-8.406882,8.066585,-3.324449,-163.161713,-18.224260,317.032196
343,937905646,43.237617,10.747752,154.277405,-11.642055,8.841137,-2.307470,-177.149155,-16.951017,331.233734
344,937922313,40.578171,6.908353,158.199402,-14.476099,8.547881,0.043307,-195.344406,-18.559229,327.241425
345,937938980,37.733616,3.626573,161.844589,-15.641694,7.344183,2.703211,-190.428421,-17.620850,293.524689
346,937955647,35.589481,1.281785,164.786163,-13.374609,4.875809,1.981781,-135.939148,-10.047983,225.748734
347,937972314,35.073093,0.007687,166.506866,-8.461378,2.290313,-0.606442,-31.922487,-5.161126,128.713730
348,937988981,35.723637,-0.258814,166.750122,-4.399229,1.040628,-0.333680,39.281609,-7.076315,21.444435
349,938005648,36.866623,0.382284,165.472794,-5.164162,1.507178,1.150887,68.873795,-16.860918,-84.256538
350,938022315,38.240288,1.809926,162.925339,-8.529576,2.808215,1.678829,85.538811,-27.740812,-173.076492
351,938038982,39.854900,3.808210,159.573227,-11.334288,3.292625,1.223131,106.907677,-35.959064,-231.258713
352,938055649,41.399170,6.176501,155.791672,-13.576736,2.929029,0.991892,112.562675,-41.866734,-263.788513
353,938072316,42.521072,8.756200,151.838089,-14.045921,3.180460,0.772168,98.303207,-44.704018,-278.102020
354,938088983,43.164661,11.398809,147.940704,-12.535155,4.325389,0.041578,79.709610,-42.837811,-276.345978
355,938105650,43.494720,14.029923,144.310654,-9.830893,4.841728,-0.661777,67.920471,-33.483517,-262.600830
356,938122317,43.743629,16.674097,140.995514,-7.219914,4.305146,-0.568908,67.776527,-19.989506,-248.038895
357,938138984,43.896385,19.269562,138.135757,-5.105837,3.886032,-0.207892,62.288101,-3.158911,-225.331573
358,938155651,43.978039,21.767860,135.909424,-3.217619,2.908594,0.074647,51.899094,18.636272,-193.850082
359,938172318,44.098087,24.089891,134.502151,-1.705523,1.684624,-0.092534,40.275539,43.608658,-152.511627
360,938188985,44.368671,26.186007,134.033783,-0.464522,0.355963,-0.069844,28.347078,69.881325,-105.723396
361,938205652,44.930050,27.993038,134.589066,1.249897,-1.149850,-0.186826,18.685545,95.494034,-54.854229
362,938222319,46.105732,29.503128,136.228317,3.031565,-2.734184,-0.008536,23.407536,122.519646,-3.979843
363,938238986,48.045101,30.634184,139.003586,4.786839,-3.714429,-0.084046,33.094387,149.238007,48.698181
364,938255653,50.932625,31.278309,142.951035,6.537600,-4.306771,-0.643483,51.557785,177.013443,102.805382
365,938272320,54.697868,31.381311,147.918350,6.893593,-5.004512,-0.534472,71.037071,204.042496,149.179352
366,938288987,58.835682,30.996502,153.520859,5.755719,-6.170032,0.763766,74.242599,225.365143,177.128876
367,938305654,62.615158,30.243320,159.326126,4.921997,-7.819178,2.812708,49.410755,236.856812,186.197510
368,938322321,65.318954,29.336376,164.946457,5.557981,-7.918956,4.208295,-5.206657,236.565842,177.542191
369,938338988,66.673172,28.614054,169.993530,8.098146,-6.256979,4.481711,-65.281822,221.861267,147.589615
370,938355655,67.187332,28.302406,174.340866,10.822440,-3.669457,2.978658,-93.250343,201.134155,107.323967
371,938372322,67.587379,28.529835,177.948822,12.916258,-1.770586,0.857973,-78.812531,178.479218,60.892277
372,938388989,68.202530,29.297953,-179.437363,14.192513,-0.942474,-0.512489,-38.715847,142.004166,9.258965
373,938405656,68.931892,30.551901,-178.016647,14.374604,-0.180591,-0.706011,1.439161,93.735001,-42.731846
374,938422323,69.531151,32.293072,-177.846359,13.733156,0.426049,-0.443521,30.833405,42.669827,-94.274574
375,938438990,69.800858,34.516140,-178.795670,12.463107,0.623355,0.041471,47.748253,-0.770567,-141.268005
376,938455657,69.678642,37.037922,179.374329,11.105555,-0.031333,0.715029,57.076439,-33.715927,-172.446289
377,938472324,69.176857,39.546604,176.900024,9.800944,-1.034043,1.615359,62.116692,-58.745201,-181.498077
378,938488991,68.100342,41.784210,173.919693,8.394414,-1.950705,2.609296,52.175037,-79.966850,-174.055069
379,938505658,66.331741,43.597431,170.534561,7.166467,-2.588658,3.505911,31.848814,-98.053375,-157.722366
380,938522325,63.948315,44.881321,166.810928,6.203627,-3.349654,3.851051,13.118539,-115.387222,-136.789246
381,938538992,61.259857,45.547375,162.855606,5.472748,-4.105017,3.516563,7.388147,-132.575027,-112.016022
382,938555659,58.701500,45.564816,158.854797,4.500632,-4.475917,3.290194,18.130917,-147.536255,-84.618073
383,938572326,56.573929,44.942036,155.024200,3.329534,-4.310389,2.728596,35.835079,-159.187973,-54.678082
384,938588993,54.851974,43.663330,151.674698,1.705481,-4.033744,2.011182,37.303551,-164.577087,-17.280029
385,938605660,53.106949,41.692055,148.963455,-0.216329,-3.679374,1.187981,5.828469,-168.813980,25.682646
386,938622327,51.063652,38.942745,146.907837,-1.481089,-2.668499,-0.251240,-42.523060,-178.097641,72.700829
387,938638994,48.727207,35.439713,145.674286,-2.298558,-1.200617,-1.610406,-95.157410,-183.049362,123.138313
388,938655661,46.070885,31.276669,145.301254,-3.297970,0.850529,-2.942527,-146.760620,-185.406174,171.575775
389,938672328,43.351551,26.549631,145.771790,-4.681161,2.508634,-4.464891,-176.483795,-186.742340,217.481247
390,938688995,40.822620,21.443974,146.965927,-6.995708,4.506793,-5.153953,-180.544907,-186.024384,254.285080
391,938705662,38.329010,16.188021,148.807037,-9.605558,6.427012,-4.533729,-184.907761,-178.984589,281.887268
392,938722329,35.882275,11.080910,151.070007,-12.303532,7.527153,-2.738386,-178.474945,-167.287613,290.463593
393,938738996,33.351181,6.411731,153.623413,-14.504731,8.238042,0.008179,-174.832153,-147.028183,284.119507
394,938755663,30.813023,2.570436,156.087402,-15.131924,7.296062,1.948253,-163.563431,-119.494942,247.625015
395,938772330,28.212248,-0.088112,157.984558,-14.257849,4.628665,2.538418,-158.248062,-85.260910,177.930130
396,938788997,25.635859,-1.484095,158.728394,-11.962014,1.891587,1.453409,-153.743057,-56.981159,78.015633
397,938805664,23.731682,-1.702998,158.104126,-10.160519,1.893356,-0.003496,-115.077026,-30.066477,-28.247278
398,938822331,23.286942,-0.943253,156.329514,-9.936257,4.054486,-2.184353,-28.933176,-3.152171,-115.507912
399,938838998,24.627764,0.673919,153.682571,-10.864947,4.962121,-2.035562,80.258911,21.685652,-184.248810
400,938855665,26.891731,2.976195,150.598740,-11.935088,4.920708,0.080356,141.876190,41.532204,-226.323807
401,938872332,28.735590,5.743326,147.345337,-12.458419,5.019778,1.289974,125.611893,53.519394,-249.359009
402,938888999,29.487795,8.765245,144.093384,-11.580462,4.556143,0.507465,69.934357,61.733212,-257.052765
403,938905666,29.089380,11.918839,140.966507,-10.529873,4.356369,-0.409783,9.968440,72.233154,-253.276993
404,938922333,27.842941,15.078104,138.122803,-7.808456,4.872324,-1.472634,-34.752804,85.069450,-235.951599
405,938939000,26.392265,18.181677,135.775742,-5.069660,4.828693,-2.076135,-46.538097,101.766281,-204.742645
406,938955667,25.412710,21.257458,134.070724,-3.456280,4.429658,-1.759264,-24.072588,121.482483,-167.009003
407,938972334,25.181932,24.327818,133.198364,-2.174624,3.307059,-1.080134,6.595540,143.492004,-122.118767
408,938989001,25.638496,27.300417,133.295792,-1.018586,0.764197,-0.963674,25.002619,160.923309,-71.549316
409,939005668,26.797802,29.972670,134.375183,-0.341728,-2.248263,-0.568458,38.666241,166.510468,-19.611242
410,939022335,28.655762,32.135769,136.502121,1.057343,-4.016969,-0.331841,45.786476,163.294540,36.623226
411,939039002,30.935652,33.670914,139.624329,2.095868,-5.922677,-0.095478,35.166721,155.615448,90.953979
412,939055669,33.356888,34.495090,143.434143,3.684246,-7.350508,0.424255,17.310871,140.126602,134.210083
413,939072336,35.795403,34.674301,147.754669,5.611319,-7.028254,0.482452,-0.700734,127.493340,169.837402
414,939089003,38.476437,34.293842,152.524261,7.910118,-5.717103,0.546464,-1.042091,121.737892,202.034897
415,939105670,41.530273,33.409306,157.557037,9.486750,-5.463308,0.122703,15.126796,118.091484,226.408081
416,939122337,44.826778,32.168892,162.427185,10.266736,-6.591337,-1.258446,39.647301,111.359657,230.259308
417,939139004,48.155823,30.730766,166.737640,10.998839,-7.900865,-2.099159,64.919716,98.142204,214.696609
418,939155671,50.938637,29.263002,170.153900,11.693402,-6.468677,0.183608,64.639214,75.454552,182.433823
419,939172338,52.847866,28.137152,172.469147,12.212717,-3.471574,2.802437,48.024055,51.680042,128.617416
420,939189005,54.129364,27.735165,173.838593,12.603878,-0.716368,3.677814,38.591442,41.471767,62.863956
421,939205672,54.949810,28.137506,174.368591,12.231965,0.470499,2.214570,34.529888,34.357101,-3.063022
422,939222339,55.417130,29.254728,174.098892,11.898342,0.754496,0.248066,36.012188,24.084953,-62.824287
423,939239006,55.624111,30.899605,173.095032,11.594931,0.218467,-0.443976,42.813164,10.364717,-110.534492
424,939255673,55.486202,32.808521,171.447784,10.924954,-0.591371,-0.268098,44.103477,-6.996999,-141.595016
425,939272340,54.943619,34.743656,169.331985,10.360334,-1.012207,-0.266137,38.246490,-22.980019,-155.202881
426,939289007,54.215725,36.513622,167.020981,10.170594,-1.519430,-0.053039,37.329220,-32.854458,-151.497513
427,939305674,53.546619,37.917915,164.715927,10.092180,-2.495178,0.263776,43.731678,-41.860615,-132.613754
428,939322341,52.970066,38.771603,162.601639,9.467858,-3.755417,0.843724,44.338154,-51.643574,-100.189301
429,939339008,52.349133,38.941273,160.542267,7.839864,-4.854827,1.069426,40.493866,-72.878555,-66.080269
430,939355675,51.521656,38.284409,158.642349,6.007147,-5.360329,0.825432,21.725023,-96.982544,-23.512081
431,939372342,50.441719,36.685417,157.042175,4.550572,-5.222229,0.090940,-6.129790,-122.150352,26.947680
432,939389009,49.131725,34.093784,155.833633,3.344664,-4.314095,-1.225830,-36.354927,-148.101501,80.948921
433,939405676,47.793015,30.504063,155.087402,1.724426,-3.357751,-2.588524,-56.134865,-173.724274,136.493088
434,939422343,46.334743,25.980579,154.821960,-1.214510,-2.305072,-3.541034,-79.678635,-197.728500,189.519318
435,939439010,44.433914,20.609369,155.035767,-4.494628,-0.844674,-3.629013,-118.811104,-220.540192,238.058929
436,939455677,41.726299,14.471463,155.819321,-7.180942,2.093948,-3.116597,-176.245789,-240.948837,284.679840
437,939472344,38.233303,7.771179,157.247314,-10.256864,5.188941,-1.964964,-225.639343,-256.605621,323.146240
438,939489011,34.764744,1.060478,159.297928,-14.999621,9.040393,1.021207,-217.109238,-253.230499,338.524170
439,939505678,31.672796,-4.906769,162.068710,-19.877010,11.784480,6.461290,-179.510773,-210.973526,335.525665
440,939522345,28.510275,-9.524230,165.144516,-22.062063,8.841351,11.298489,-166.198456,-150.374573,297.658875
441,939539012,25.843250,-12.344693,167.874237,-18.773005,3.459847,8.949377,-128.671280,-79.576584,220.654724
442,939555679,24.762859,-13.454782,169.550003,-12.082971,1.139894,0.758782,-42.157013,-20.816616,117.361069
443,939572346,25.586983,-12.867985,169.316849,-7.426085,0.657504,-1.467349,46.470726,23.580893,-27.019154
444,939589013,27.912298,-11.135725,167.440613,-6.573619,1.621839,-0.511010,116.291290,40.758949,-144.830460
445,939605680,30.981602,-8.604937,164.702240,-9.335560,2.438389,1.281276,156.130371,50.144180,-215.342346
446,939622347,33.689148,-5.563424,161.522598,-12.530210,2.385375,2.012658,139.042084,50.404087,-257.307495
447,939639014,35.349850,-2.295587,158.013184,-14.317430,2.855009,1.223186,85.346992,39.967670,-283.918365
448,939655681,35.960842,0.992258,154.404541,-13.940367,4.447812,-0.827214,34.361675,31.552462,-290.631714
449,939672348,36.214256,4.192533,150.986923,-12.108961,5.930512,-2.785662,24.653841,31.991516,-278.374420
450,939689015,36.690651,7.201396,147.980698,-9.772738,6.040651,-3.349088,46.653065,36.069115,-251.374847
451,939705682,37.563171,9.880806,145.483673,-7.657198,4.913612,-3.056631,74.758591,36.269871,-214.918121
452,939722349,38.594097,12.027778,143.584259,-6.315973,3.325464,-2.460170,83.668625,29.928503,-167.286575
453,939739016,39.397202,13.430983,142.274536,-5.573571,1.867096,-1.493263,65.664398,14.740351,-112.320175
454,939755683,39.932934,13.973363,141.610062,-4.308164,0.783305,-0.882496,41.752216,-2.128255,-50.359119
455,939772350,40.495747,13.547579,141.676697,-1.583460,-0.602648,-0.776865,32.983089,-19.457609,19.688484
456,939789017,41.688404,12.097837,142.612961,1.822289,-1.750492,-0.888852,59.250648,-32.010044,98.682457
457,939805684,43.802124,9.696088,144.489136,4.802397,-2.066834,-0.450626,105.679703,-33.247978,179.221619
458,939822351,46.973377,6.554504,147.234818,7.536208,-2.214461,0.217954,167.077240,-18.711407,248.967468
459,939839018,50.813236,2.918373,150.738190,8.287935,-3.128680,1.686132,213.063690,12.005931,302.371155
460,939855685,54.452702,-0.856249,154.685959,7.690304,-5.537302,5.808140,214.126984,48.383907,323.979767
461,939872352,56.972790,-4.237266,158.603577,9.936830,-7.345919,10.703430,161.742401,77.328934,300.124451
462,939889019,58.012295,-6.646449,162.034439,14.649701,-6.930765,10.011330,82.062546,92.675720,232.266678
463,939905686,58.260284,-7.861993,164.911438,17.109381,-5.644697,5.804195,36.874340,104.439583,152.601944
464,939922353,58.450634,-7.970370,167.224136,17.504236,-4.194631,2.052876,30.733824,111.080688,77.931862
465,939939020,58.615952,-6.945928,168.723480,16.622112,-3.187795,0.089649,21.803225,105.646263,-5.557005
466,939955687,58.444824,-4.893240,169.264587,14.678574,-2.363300,-1.160259,-6.707571,89.310585,-87.867210
467,939972354,57.921925,-2.046912,168.948380,12.255250,-1.336224,-2.714355,-32.304001,71.405823,-154.772903
468,939989021,57.136738,1.376418,167.945053,10.327971,-0.818444,-3.988688,-47.229774,56.935062,-205.269272
469,940005688,56.020325,5.205202,166.410706,8.906347,-0.796429,-3.856024,-61.448624,47.256054,-242.016220
470,940022355,54.478497,9.187066,164.456100,8.121398,-1.226527,-3.632206,-77.544815,38.001877,-262.269470
471,940039022,52.561646,13.019556,162.250046,8.132710,-1.260398,-3.779246,-89.229881,29.692003,-261.758698
472,940055689,50.555485,16.374344,159.986816,8.373752,-1.836425,-3.467221,-85.631897,19.680126,-238.956436
473,940072356,48.604855,19.013533,157.933029,8.850495,-2.331911,-2.964684,-79.312103,10.720670,-196.308334
474,940089023,46.797997,20.761398,155.962402,8.473538,-3.044440,-1.824898,-67.931023,-14.230000,-152.027054
475,940105690,45.119499,21.536934,154.230301,7.578561,-3.347055,-0.853921,-62.962658,-39.892780,-100.460693
476,940122357,43.564640,21.335793,152.847870,6.122856,-3.289679,-0.397462,-62.727345,-65.161835,-46.413094
477,940139024,42.371002,20.050056,151.987488,4.613621,-2.552807,-0.962891,-53.124783,-91.935150,17.610418
478,940155691,41.551388,17.783579,151.661423,1.964095,-1.694972,-1.907204,-42.580772,-116.068275,77.531151
479,940172358,40.676781,14.543474,151.900482,-1.123576,-0.842155,-2.207721,-56.206676,-139.981796,138.580490
480,940189025,39.395111,10.273993,152.785202,-3.801318,0.477400,-2.031718,-88.025902,-165.352249,204.848511
481,940205692,37.727684,5.233565,154.284149,-7.086977,2.940867,-0.372171,-111.870369,-183.479111,258.573578
482,940222359,35.840569,-0.202854,156.453232,-11.261289,6.446479,1.780784,-118.602135,-185.904968,299.823242
483,940239026,34.133518,-5.620542,159.210449,-15.368733,9.237755,3.913353,-93.686401,-174.062363,322.100677
484,940255693,32.288170,-10.580624,162.513321,-19.767710,9.117494,7.483189,-82.456573,-143.985825,327.481110
485,940272360,29.904043,-14.579496,165.920471,-21.525078,5.884263,10.159513,-98.185379,-104.861786,295.079407
486,940289027,27.984959,-16.991943,168.802841,-17.841476,2.833585,8.311369,-67.830177,-48.610443,215.976334
487,940305694,27.878008,-17.765337,170.485428,-12.426970,0.103153,1.751749,23.957201,1.632591,107.148354
488,940322361,29.524042,-17.098249,170.322922,-8.208781,-0.945415,-1.650047,96.055099,28.148596,-27.093393
489,940339028,32.078953,-15.219872,168.555450,-7.826914,-0.112470,-0.119810,123.963402,42.149803,-144.923737
490,940355695,34.517658,-12.465756,165.983139,-10.628073,0.487382,2.440816,109.546600,53.332680,-215.697067
491,940372362,36.272152,-9.216500,163.009949,-12.911593,1.278988,2.775183,71.863365,54.915527,-255.463715
492,940389029,37.360573,-5.759652,159.818909,-13.384169,2.130389,1.078965,40.508568,49.758545,-275.983490
493,940405696,38.228619,-2.088353,156.556244,-12.865333,2.847687,-0.238725,38.838921,51.846664,-289.051697
494,940422363,38.940941,1.593919,153.586929,-11.602804,3.816795,-0.832673,42.124763,59.074245,-276.796082
495,940439030,39.816635,5.169305,151.101685,-9.470419,4.002555,-1.225774,61.485466,68.883163,-250.918152
496,940455697,41.056618,8.577697,149.139801,-7.056008,3.337733,-1.288872,88.627045,77.373848,-221.361099
497,940472364,42.790176,11.730000,147.760071,-4.807690,2.147744,-0.777049,118.741280,83.817368,-186.781769
498,940489031,45.014053,14.497954,147.118668,-2.799466,1.534136,-0.681948,142.298157,91.217590,-141.957581
499,940505698,47.314510,16.753777,147.301086,-0.755549,-0.246975,-0.315696,135.223846,98.890289,-90.119774
500,940522365,49.846016,18.378328,148.337189,1.704996,-2.378426,0.269420,133.277405,106.466438,-33.671597
501,940539032,52.653423,19.193556,150.246933,3.900555,-3.839439,0.154262,131.694595,112.749550,29.972851
502,940555699,55.503490,19.152874,152.824249,5.747886,-4.058609,-0.653471,120.361488,114.375412,87.883987
503,940572366,58.309940,18.377153,155.890289,7.134434,-3.622144,-0.270446,109.345184,118.039291,134.311005
504,940589033,61.077827,17.071833,159.348587,9.105034,-1.759848,0.933528,103.030579,128.642105,167.562836
505,940605700,63.775860,15.511493,163.207748,10.308807,-0.182167,1.737321,97.048134,151.200470,186.069305
506,940622367,66.136452,14.010756,167.276825,10.428537,-0.377591,2.195089,79.561722,173.296127,181.728485
507,940639034,67.702660,12.974246,171.145950,10.455585,-1.818851,3.271883,39.978317,180.796387,145.938919
508,940655701,68.045761,12.812111,174.342926,11.492376,-2.991377,4.057467,-22.008062,167.040115,79.699295
509,940672368,67.143410,13.463667,176.574600,12.478415,-3.018358,3.140899,-84.355560,132.940475,13.842713
510,940689035,65.485321,14.751814,177.804535,12.616261,-1.678582,0.646847,-117.252235,94.077240,-41.732082
511,940705702,63.645615,16.651558,178.084671,11.834199,-0.181011,-2.141986,-114.704628,61.047482,-95.683037
512,940722369,62.028324,19.098400,177.528137,10.440354,0.288396,-3.317224,-86.554573,36.217312,-144.810516
513,940739036,60.668854,21.904655,176.316772,9.282593,-0.054449,-3.043476,-55.870785,18.450001,-180.067184
514,940755703,59.343430,24.892292,174.611206,8.717335,-0.653731,-2.148356,-38.636955,5.720700,-201.853195
515,940772370,57.826439,27.946096,172.559158,7.691205,-1.904652,-0.779115,-35.976448,-1.157373,-213.480881
516,940789037,55.941082,30.965841,170.191147,6.510365,-3.118572,0.271964,-42.980270,-7.199254,-218.968674
517,940805704,53.630375,33.836021,167.620712,5.674724,-3.425135,0.507753,-55.720291,-9.659853,-215.400894
518,940822371,51.110714,36.455170,165.003220,5.582409,-3.759051,0.203409,-60.492706,-8.335417,-202.477570
519,940839038,48.609016,38.662731,162.461227,5.802801,-4.311004,0.537920,-56.859623,-9.620636,-178.812958
520,940855705,46.359459,40.257095,160.108383,6.039495,-4.451478,0.545916,-44.999332,-18.267639,-143.781540
521,940872372,44.660511,41.093716,158.236282,5.636329,-4.504436,0.333188,-28.486824,-28.169176,-95.126396
522,940889039,43.569458,41.107315,156.857651,4.341276,-4.746583,0.262083,-10.851813,-45.381271,-44.935558
523,940905706,42.738777,40.271126,155.881226,2.832274,-4.246179,-0.397886,-11.412373,-69.567093,2.291269
524,940922373,42.325924,38.578281,155.336121,0.770789,-3.290622,-1.324378,-3.765232,-94.513924,50.429356
525,940939040,42.268921,36.010151,155.188248,-1.538870,-1.736555,-2.353907,2.185829,-121.313972,98.859810
526,940955707,42.098999,32.580494,155.362289,-3.339252,-0.341754,-3.312832,-15.847818,-149.277954,144.955276
527,940972374,41.412506,28.303938,155.845200,-5.376554,1.269148,-3.611534,-55.627262,-177.367493,189.892532
528,940989041,40.131676,23.364286,156.663635,-7.590601,3.359617,-3.231709,-97.982857,-198.167480,227.400146
529,941005708,38.537109,18.141554,157.818878,-11.878757,6.116231,-1.485754,-119.950867,-203.858170,249.133148
530,941022375,36.742367,13.124898,159.288879,-15.257691,9.221100,1.158766,-131.167297,-189.029663,251.441010
531,941039042,35.071590,8.790381,160.796692,-16.450619,8.950077,2.632627,-117.174660,-161.093307,224.806320
532,941055709,33.721088,5.483502,162.050552,-15.860365,7.001248,2.725681,-90.135101,-124.071411,173.998505
533,941072376,33.036190,3.520529,162.910004,-14.765408,5.339715,2.515676,-44.921371,-72.578316,108.022118
534,941089043,33.495476,3.093716,163.327560,-14.173950,3.843094,1.937414,26.323582,-10.187525,35.244892
535,941105710,34.523457,4.023352,163.195877,-13.585064,2.041278,1.279394,62.375645,39.345570,-37.463161
536,941122377,35.108593,5.957544,162.372498,-13.248750,1.488294,0.629164,39.603241,64.707512,-106.403984
537,941139044,35.257133,8.636136,160.999695,-13.106905,2.600842,-0.131536,19.566896,81.815804,-159.125992
538,941155711,35.416142,11.835934,159.421555,-12.294288,3.861738,-0.469519,26.553402,100.262192,-186.819931
539,941172378,35.791946,15.371187,157.882309,-11.585378,4.369565,-0.357755,44.445160,117.752556,-196.250565
540,941189045,36.373940,18.999767,156.550690,-9.746511,3.892207,-1.069216,58.692924,128.555527,-189.705368
541,941205712,37.113789,22.512819,155.492233,-7.450896,2.535517,-1.669065,67.057579,130.950958,-173.492599
542,941222379,38.061321,25.695822,154.791245,-5.437998,1.112316,-1.772781,74.184135,125.502487,-146.732468
543,941239046,39.091564,28.283997,154.469543,-2.673916,0.081261,-1.352942,70.730003,108.264793,-110.103432
544,941255713,40.152199,30.158110,154.482574,-0.414439,-0.738377,0.171045,63.416004,84.635887,-71.012436
545,941272380,41.344227,31.270247,154.954041,1.456006,-1.431214,1.498791,57.235180,64.008751,-24.962406
546,941289047,42.785076,31.581587,155.959381,3.141771,-2.313086,2.170206,55.167122,45.929314,25.864891
547,941305714,44.550838,31.078293,157.386673,5.571913,-3.330374,1.809637,61.582497,26.237728,73.932724
548,941322381,46.690155,29.866335,159.064728,7.096127,-4.248577,1.317267,77.461334,8.727997,112.838966
549,941339048,49.027298,28.065117,160.761765,7.890691,-4.471820,1.285857,91.071968,-8.897244,140.089539
550,941355715,51.463684,25.939453,162.375275,8.293101,-3.476710,1.510814,102.380241,-17.699440,153.406204
551,941372382,54.000488,23.797646,163.957199,8.004413,-2.994856,2.640708,112.445755,-11.747823,154.620132
552,941389049,56.212955,21.893309,165.493225,7.107168,-3.433048,4.424102,97.129723,1.825986,142.518555
553,941405716,57.645241,20.434336,166.839310,7.139030,-3.664675,4.849599,56.955673,12.862788,114.680382
554,941422383,58.399612,19.623201,167.978760,8.265409,-2.378415,2.953870,22.033710,26.215929,75.537277
555,941439050,58.947102,19.584578,168.975342,9.736646,-0.743383,0.427718,12.975428,44.409370,31.518332
556,941455717,59.590969,20.212109,169.830444,11.050557,0.349489,-1.692697,21.364134,58.197121,-7.443601
557,941472384,60.182259,21.434353,170.405319,10.910638,0.643564,-2.527528,23.414824,62.164864,-46.974846
558,941489051,60.247986,23.187199,170.608276,10.491929,-0.051245,-1.568500,-0.470767,59.497131,-85.379044
559,941505718,59.620621,25.386103,170.297363,9.856107,-0.953632,-1.264872,-29.749626,48.853386,-122.383560
560,941522385,58.425255,27.986364,169.416870,9.102295,-1.569678,-1.004324,-47.763130,37.291161,-157.725967
561,941539052,56.806896,30.853590,168.006149,8.278687,-2.011764,-0.042970,-55.272671,27.326456,-184.418793
562,941555719,54.817318,33.784634,166.181412,7.742441,-2.289962,0.800436,-60.578903,19.720886,-197.100815
563,941572386,52.458256,36.530048,164.000244,7.769886,-2.765809,1.650697,-65.914795,8.930079,-195.711639
564,941589053,49.949032,38.813175,161.700516,7.829002,-2.785647,1.714206,-65.960091,-1.868420,-174.812592
565,941605720,47.690609,40.530060,159.239929,7.096282,-2.823955,2.360029,-41.002144,-20.277670,-151.961563
566,941622387,46.028931,41.589256,156.812271,5.631410,-3.001739,2.945220,-3.777500,-39.261860,-121.078751
567,941639054,44.897861,42.035244,154.547928,2.710542,-4.043113,3.979067,22.954041,-55.985592,-89.701721
568,941655721,43.588425,41.913975,152.327530,-0.169950,-4.597953,4.415444,10.775725,-76.888901,-65.487755
569,941672388,41.622494,41.200085,150.112305,-1.153615,-4.352746,3.013389,-29.541153,-101.427040,-43.828331
570,941689055,39.183483,39.787952,148.065994,-0.993429,-3.550594,0.482157,-66.358444,-127.614693,-15.814564
571,941705722,36.588223,37.595699,146.376343,-0.703888,-2.696469,-2.011940,-92.077812,-154.986145,18.682753
572,941722389,34.054874,34.570118,145.187271,-1.092081,-1.204850,-3.590073,-109.705986,-184.045166,58.268032
573,941739056,31.568695,30.768312,144.614655,-2.495195,1.212367,-4.653646,-130.334045,-209.987122,99.654671
574,941755723,28.965525,26.393753,144.667648,-4.211843,3.507673,-4.876710,-157.403702,-227.888260,135.063583
575,941772390,26.389893,21.674686,145.235657,-6.183450,5.470524,-4.512394,-168.102402,-238.880020,159.440720
576,941789057,24.391081,16.900330,146.328629,-8.487864,7.479358,-4.694966,-141.293381,-234.816254,179.098053
577,941805724,23.279465,12.283300,147.842896,-10.113142,7.785373,-4.299012,-89.326965,-220.393616,192.708832
578,941822391,22.758802,8.158504,149.496307,-13.673193,7.232663,-1.559388,-48.607155,-192.114258,186.952744
579,941839058,22.273418,4.907511,151.004150,-16.305344,6.134736,2.304130,-39.189293,-148.270645,158.032089
580,941855725,21.390591,2.912945,151.937286,-17.258783,3.564665,4.513436,-56.569756,-92.809380,96.645805
581,941872392,20.560934,2.291380,151.834564,-14.878595,3.013674,1.970735,-49.297596,-39.501068,7.882491
582,941889059,20.540066,2.940869,150.594223,-13.337375,3.189107,-0.463353,2.335698,7.930879,-83.015533
583,941905726,21.239273,4.653738,148.495316,-12.407430,3.506980,-0.614135,50.466156,48.751163,-153.775269
584,941922393,22.134096,7.124810,146.011719,-12.862775,3.364795,0.532037,69.134544,80.531761,-192.266663
585,941939060,22.835730,10.112920,143.336288,-13.084659,3.970119,0.469234,66.300575,102.492226,-214.965637
586,941955727,23.318708,13.442552,140.580841,-11.333905,4.560746,-1.310639,62.865299,117.884026,-226.964798
587,941972394,23.774500,16.951918,137.848343,-8.666121,3.587739,-2.211120,70.459061,127.356033,-228.935394
588,941989061,24.264675,20.381847,135.314728,-6.011624,2.822509,-2.191139,78.193962,126.892609,-215.100983
589,942005728,24.860540,23.608488,133.111481,-4.040585,2.671400,-1.438607,85.385773,122.675812,-191.748276
590,942022395,25.605358,26.555288,131.358124,-2.386108,2.033185,-0.127770,89.405159,116.875053,-161.359344
591,942039062,26.478056,29.117855,130.142563,-0.329074,0.535062,0.762539,86.540955,107.389809,-125.247993
592,942055729,27.492231,31.165314,129.488190,2.118349,-1.481148,1.445195,80.692146,91.624184,-85.797836
593,942072396,28.849514,32.602089,129.418427,3.926224,-2.827760,1.354927,83.780861,71.868927,-43.628456
594,942089063,30.876188,33.405197,130.046967,6.479982,-2.988177,0.974966,101.198029,55.079735,3.644915
595,942105730,33.961361,33.657005,131.451553,8.391486,-2.954023,0.719199,138.701538,47.949677,51.419815
596,942122397,37.981220,33.378979,133.475540,10.273608,-2.299884,0.919379,174.275467,43.497658,91.966965
597,942139064,42.365265,32.666515,135.843445,10.211146,-2.107561,1.020442,185.757858,41.706005,118.836868
598,942155731,46.434761,31.595961,138.320984,9.305692,-3.163791,1.741983,165.254440,39.703892,135.129578
599,942172398,49.271450,30.199617,140.704895,7.807758,-3.683203,2.077188,96.915520,32.291386,144.723831
600,942189065,50.553242,28.880140,142.760590,7.969387,-1.264063,3.036386,16.286196,28.618490,129.928436
601,942205732,50.585754,27.936396,144.512619,8.896552,-0.201919,3.398333,-47.855686,32.951092,102.735092
602,942222399,50.135910,27.456686,146.021561,9.326237,-0.497935,2.106911,-68.856346,40.864269,73.588860
603,942239066,49.560730,27.458258,147.133698,8.226889,-1.933679,1.809072,-65.055466,42.808201,38.405540
604,942255733,48.679935,27.897507,147.644852,7.453674,-3.329911,1.630116,-66.866104,35.268303,-1.845675
605,942272400,47.208431,28.730911,147.500076,6.418468,-4.041087,1.647341,-83.940025,25.296116,-41.936737
606,942289067,44.931442,29.893747,146.738632,5.911785,-3.971839,1.997913,-114.014435,17.186764,-77.563972
607,942305734,42.031559,31.297958,145.501404,6.560321,-3.358562,1.167880,-135.962067,14.625610,-104.016716
608,942322401,38.994991,32.844975,143.952484,7.513482,-2.799541,0.518930,-132.590195,16.861891,-119.838730
609,942339068,36.227657,34.392193,142.287247,7.672261,-2.804052,0.508829,-110.462242,20.206253,-122.225456
610,942355735,33.843090,35.797157,140.645950,7.002599,-3.138105,0.840027,-86.198563,20.207092,-114.018463
611,942372402,31.822651,36.935863,139.126984,5.986098,-3.654797,1.099745,-66.931572,15.054669,-98.351273
612,942389069,30.125967,37.698639,137.808762,5.145037,-4.039760,1.341057,-53.600071,4.301261,-77.124817
613,942405736,28.645294,37.995419,136.764755,4.250767,-4.109837,1.261343,-50.154247,-11.327363,-51.475185
614,942422403,27.223097,37.759773,136.073212,3.519505,-3.880786,0.786379,-59.602287,-30.410759,-21.949505
615,942439070,25.852613,36.933311,135.800323,2.936270,-3.292819,0.108821,-72.040771,-52.762436,10.872575
616,942455737,24.829521,35.516827,136.042282,2.488788,-2.442471,-0.789705,-69.709023,-74.387589,47.323200
617,942472404,24.229639,33.508114,136.862274,1.665137,-1.568550,-1.760003,-63.612347,-95.404488,87.280846
618,942489071,23.864983,30.950470,138.157211,0.354801,-0.514053,-2.505870,-63.061634,-115.944939,122.913971
619,942505738,23.403788,27.871698,139.832413,-1.190712,0.909143,-2.796946,-76.778481,-136.711609,154.630051
620,942522405,22.876528,24.279308,141.862411,-2.646147,2.456319,-3.066683,-84.920914,-157.779236,185.660202
621,942539072,22.850576,20.365705,144.221024,-5.379144,4.490697,-3.265423,-55.073204,-168.053955,212.212601
622,942555739,23.309679,16.316475,146.876389,-8.834921,6.278625,-3.180962,-22.375162,-166.752472,234.709564
623,942572406,24.234819,12.418694,149.552521,-12.165758,7.682883,-2.007283,15.859626,-153.840027,236.955307
624,942589073,25.368944,8.911510,152.089218,-14.856375,6.988435,-0.236873,40.071842,-130.788895,224.371384
625,942605740,26.267488,6.139546,154.101593,-17.163437,4.637894,2.500515,38.304733,-100.093803,180.497894
626,942622407,26.569763,4.500430,155.215408,-16.981274,2.071535,3.937243,12.151999,-60.977253,103.644043
627,942639074,26.642027,4.170923,155.155884,-14.438730,1.431230,2.624527,4.808211,-21.763794,5.954241
628,942655741,27.014673,5.037751,153.927582,-13.187204,2.056074,0.528937,28.464987,10.778317,-88.748932
629,942672408,27.704105,6.810943,151.816299,-12.465678,2.637053,-0.099623,54.614590,34.106808,-160.531464
630,942689075,28.511183,9.172761,149.113556,-12.192835,3.281227,0.013499,71.127853,46.856140,-208.155716
631,942705742,29.094172,11.827190,146.024429,-11.592840,4.082758,-0.723660,68.904305,49.272087,-236.179825
632,942722409,29.245548,14.592479,142.704697,-10.255104,4.362989,-1.472943,54.749435,47.874550,-249.945282
633,942739076,29.006721,17.353483,139.317688,-8.466207,4.567375,-2.242592,41.745003,47.133343,-251.066605
634,942755743,28.623617,20.077543,135.962143,-6.389398,4.889719,-2.318218,41.761658,48.819252,-245.624527
635,942772410,28.238806,22.685200,132.853455,-4.541560,4.918451,-1.872335,45.051140,52.427963,-227.010254
636,942789077,27.987694,25.128624,130.170700,-2.856295,4.109422,-1.411342,50.293346,57.509434,-198.670929
637,942805744,27.858837,27.336401,128.057846,-1.359964,2.510195,-0.931784,48.426167,61.348316,-162.309479
638,942822411,27.906507,29.218323,126.676094,0.019727,0.818289,-0.130353,42.254116,63.224575,-117.149727
639,942839078,28.333469,30.771030,126.084625,2.000873,-0.325289,-0.142756,43.476196,65.243187,-70.827682
640,942855745,29.622774,32.038292,126.367844,3.920710,-1.069283,-0.430600,68.622223,71.103912,-23.960783
641,942872412,32.041195,33.087200,127.593483,5.466540,-1.968686,-0.133601,105.646729,83.360046,21.156878
642,942889079,35.925797,33.880264,129.689774,7.242893,-2.989313,0.069407,163.800369,95.640747,60.591660
643,942905746,41.510986,34.394005,132.652573,8.805566,-3.048285,-0.336351,235.449188,113.630508,95.739685
644,942922413,48.200989,34.616135,136.317810,7.881466,-3.716406,-0.028016,276.892456,134.818863,119.301331
645,942939080,54.644634,34.466881,140.289444,5.919807,-4.583988,2.327954,251.572449,145.405594,129.637283
646,942955747,59.195591,34.039913,143.890213,4.267376,-5.828809,5.194381,151.574203,133.154282,119.155685
647,942972414,61.351254,33.607067,146.551941,5.614641,-6.298925,6.478565,40.614235,99.829231,88.571045
648,942989081,61.556725,33.312675,148.191513,8.509436,-4.722461,4.988681,-41.720932,61.139511,54.983971
649,943005748,60.688778,33.243412,148.992661,10.458250,-2.370139,2.824699,-78.257019,30.664434,23.312506
650,943022415,59.558445,33.420399,149.139435,11.300509,-1.098617,1.415231,-72.457054,9.148831,-5.260526
651,943039082,58.476112,33.815361,148.716095,11.265874,-1.431610,0.871912,-50.667404,-8.457294,-30.907290
652,943055749,57.371719,34.330215,147.708862,9.697918,-2.479604,0.951184,-32.186565,-28.536661,-52.442276
653,943072416,55.907318,34.877502,146.151535,7.892437,-3.203080,1.219125,-34.571632,-48.708656,-69.390961
654,943089083,53.790081,35.369724,144.093567,6.912158,-3.499575,1.380252,-55.753101,-68.105888,-81.951637
655,943105750,51.087776,35.706715,141.687469,6.981208,-3.766676,1.184090,-77.976608,-83.335190,-87.290154
656,943122417,48.144672,35.802502,139.171494,6.942160,-3.663172,0.769331,-88.122292,-92.134407,-83.393097
657,943139084,45.329159,35.662445,136.937424,6.499597,-3.327622,0.393411,-90.392883,-87.543732,-68.092018
658,943155751,42.856995,35.249905,134.972183,5.660179,-3.111480,0.498266,-79.671852,-87.160782,-51.395340
659,943172418,40.892380,34.558334,133.399536,4.534166,-3.417322,0.400964,-63.625473,-85.105476,-29.555513
660,943189085,39.610817,33.561554,132.288742,3.440589,-3.239989,0.098207,-39.309219,-83.882332,-3.127649
661,943205752,38.873768,32.241882,131.696671,2.454785,-2.970577,-0.050560,-24.668259,-82.756256,27.361937
662,943222419,38.129742,30.620220,131.593964,0.758290,-2.534309,0.419337,-41.169281,-81.988106,56.827774
663,943239086,36.785309,28.653351,131.950699,-0.476309,-1.895665,0.479687,-90.988091,-84.937256,86.910294
664,943255753,34.819496,26.313118,132.780624,-0.683408,-1.073012,-0.882747,-140.659332,-90.615944,118.340309
665,943272420,32.614433,23.587221,134.133286,-0.723538,0.087648,-2.511218,-166.262253,-97.772255,152.363297
666,943289087,30.392082,20.547649,136.035156,-1.373597,1.690631,-3.409961,-175.929581,-102.801277,185.835190
667,943305754,28.297548,17.267059,138.410049,-2.480806,3.120101,-3.364573,-171.557877,-108.071594,214.329437
668,943322421,26.579035,13.866633,141.176483,-4.415510,5.040769,-3.093264,-147.374893,-109.927879,236.276077
669,943339088,26.252352,10.504054,144.098236,-6.427557,6.357941,-3.437428,-56.364456,-106.972534,243.547195
670,943355755,27.435167,7.408739,147.045715,-11.247916,7.004897,-1.944844,43.630329,-89.330132,240.046860
671,943372422,28.335230,4.693443,149.621063,-15.303866,4.135348,1.649220,37.917755,-74.638077,212.324020
672,943389089,27.533215,2.524296,151.184814,-16.176264,1.225372,3.982408,-53.802330,-73.626945,143.999496
673,943405756,25.668463,1.043970,151.475357,-13.313102,1.135186,2.576537,-112.218246,-74.119858,55.642658
674,943422423,24.469629,0.364072,150.646210,-11.607876,2.722332,0.874371,-71.122803,-60.517254,-27.490692
675,943439090,24.310829,0.528223,148.949982,-11.676558,3.537053,0.590944,-8.549533,-35.533985,-96.474503
676,943455757,24.794540,1.389217,146.616470,-11.428862,3.722590,0.530631,31.537392,-13.654980,-148.520416
677,943472424,25.569639,2.794545,143.804169,-10.596695,3.938292,0.244660,52.822762,2.081728,-188.205093
678,943489091,26.366362,4.589955,140.657059,-10.138849,4.303295,-0.163652,60.108459,11.859878,-216.312210
679,943505758,27.013823,6.623308,137.304062,-8.932899,4.995124,-0.293406,58.640488,16.587746,-233.422012
680,943522425,27.419693,8.841978,133.941208,-7.179880,5.778657,-0.359119,51.637032,24.455276,-238.426941
681,943539092,27.691694,11.226296,130.754166,-5.484040,5.658878,-0.539207,49.774998,37.240334,-232.867813
682,943555759,27.896606,13.636310,127.890305,-3.628685,5.011802,-0.829988,49.420174,47.197548,-215.625671
683,943572426,28.086878,15.973861,125.480659,-1.783426,4.528059,-0.664853,48.496429,55.773781,-189.015869
684,943589093,28.394798,18.242756,123.632530,-0.242837,3.886090,-0.377618,51.232197,67.322762,-157.547150
685,943605760,28.970182,20.359041,122.475815,1.306628,2.510026,-0.306194,57.600967,77.503220,-118.179321
686,943622427,29.971827,22.224096,122.090645,2.812853,0.682955,0.378303,68.630875,84.377907,-73.571121
687,943639094,31.762899,23.808208,122.512802,4.528461,-0.527426,1.114601,97.705978,91.090828,-28.520784
688,943655761,34.769039,25.217381,123.786171,5.950589,-0.524199,1.708828,148.813248,106.370018,11.985582
689,943672428,38.992188,26.489799,125.852425,6.607752,-0.553803,1.442509,199.461578,125.565956,43.671558
690,943689095,44.012241,27.616924,128.486099,5.340627,-1.856329,1.139168,229.460724,141.442459,60.844044
691,943705762,48.704414,28.619596,131.255920,2.071294,-3.905917,1.611304,203.345932,145.117844,57.880630
692,943722429,51.814903,29.637936,133.739929,0.353483,-5.753333,3.796887,114.246437,136.680618,36.506546
693,943739096,52.913033,30.587885,135.871979,2.267426,-6.138588,4.001421,1.895587,119.933243,22.694099
694,943755763,52.656189,31.364454,137.699615,5.238640,-5.895177,2.564795,-71.650993,100.548874,20.021456
695,943772430,51.759556,31.951113,139.232315,7.475698,-4.980520,0.939001,-101.859665,80.919968,20.422964
696,943789097,50.659317,32.431671,140.355957,9.042504,-4.116858,-0.698744,-101.726013,60.020943,13.551107
697,943805764,49.751217,32.848629,141.009293,9.836653,-3.845973,-1.506966,-75.419693,38.857246,2.196454
698,943822431,49.171879,33.188255,141.166077,10.020067,-3.870280,-1.987744,-39.673435,16.717480,-10.054423
699,943839098,48.958344,33.450367,140.863663,9.354113,-3.960667,-2.139721,-2.627496,-3.676901,-21.500475
700,943855765,48.900028,33.641685,140.130081,8.213131,-4.091993,-1.447268,21.046944,-22.646332,-32.430542
701,943872432,48.746143,33.817028,139.016525,7.281291,-4.142471,-1.120687,28.091915,-37.434196,-44.168770
702,943889099,48.327564,34.003258,137.622345,6.824509,-4.109839,-0.896845,21.783104,-47.165733,-53.999908
703,943905766,47.705933,34.180260,136.127380,6.889315,-3.748716,-0.912222,13.213493,-50.655792,-57.232632
704,943922433,47.027164,34.341087,134.736679,7.022536,-3.618753,-0.761989,6.486987,-46.746357,-53.452011
705,943939100,46.263100,34.463764,133.555389,6.726848,-3.773305,0.063169,-5.554967,-40.018108,-45.138794
706,943955767,45.299469,34.484722,132.804184,6.155951,-3.696313,0.113444,-32.057716,-28.305998,-26.448687
707,943972434,44.140282,34.344234,132.375290,5.404238,-4.091886,-0.133629,-54.758400,-23.482666,-8.782426
708,943989101,42.733826,33.878983,132.214508,4.585743,-3.948430,-0.977522,-78.725830,-28.324545,13.766873
709,944005768,41.144379,32.958054,132.408920,4.092827,-3.796211,-1.187565,-101.535393,-37.163109,44.548828
710,944022435,39.566414,31.424656,133.098129,3.859184,-3.177602,-1.753654,-116.447899,-50.023651,86.621376
711,944039102,38.205181,29.247322,134.347412,3.045821,-2.086539,-2.268511,-119.268768,-63.653011,132.748047
712,944055769,36.855640,26.441246,136.077759,1.749569,-0.840677,-2.425148,-129.195679,-80.166222,175.744995
713,944072436,35.621216,23.039608,138.213837,0.728816,0.800185,-3.193366,-127.431946,-98.370438,214.913895
714,944089103,34.748337,19.108711,140.785461,-1.672260,3.562014,-3.101931,-107.588768,-112.345100,253.943344
715,944105770,34.303188,14.816220,143.716675,-4.808282,6.670859,-1.863694,-77.769730,-119.362816,284.922821
716,944122437,34.308868,10.498920,146.897583,-9.026859,9.693373,0.253855,-41.249992,-111.519882,300.161804
717,944139104,34.433197,6.377862,150.229492,-13.010418,10.088053,2.426546,-21.652058,-94.934311,303.142517
718,944155771,34.328339,2.770746,153.304169,-15.950379,8.471782,4.662725,-20.769989,-77.263321,274.295654
719,944172438,33.893063,0.008183,155.804779,-16.570473,5.493620,6.279108,-29.517721,-55.621407,217.444168
720,944189105,33.496403,-1.555685,157.342545,-15.437226,2.417688,5.989919,-22.328011,-29.392872,129.107269
721,944205772,33.533730,-1.838833,157.558624,-13.262207,0.899225,4.022423,2.836272,-9.505261,20.471172
722,944222439,34.118855,-0.985613,156.419846,-12.056940,1.413731,2.222960,33.624886,2.015375,-84.963928
723,944239106,35.021503,0.741150,154.279068,-11.581923,2.473506,1.471746,54.070122,9.942013,-164.281097
724,944255773,35.963570,3.064750,151.562286,-11.604610,2.811610,1.689040,62.106522,16.428421,-213.322815
725,944272440,36.621918,5.761759,148.488022,-11.368564,3.710950,1.052628,53.856888,19.069931,-243.752563
726,944289107,37.021210,8.728496,145.272888,-10.585066,4.888430,-0.063268,48.445797,25.299004,-259.618103
727,944305774,37.357155,11.820198,142.169006,-8.741071,5.423482,-1.671807,53.527435,34.518311,-257.865479
728,944322441,37.864140,14.933455,139.333450,-6.566981,4.768048,-2.333287,69.925331,44.473206,-244.888916
729,944339108,38.796566,17.968945,136.909836,-4.435464,4.320772,-2.382907,97.259567,53.902561,-222.141571
730,944355775,40.342701,20.850451,135.113068,-2.453624,3.952326,-2.311848,128.716904,66.040688,-188.312805
731,944372442,42.624599,23.478559,134.155304,-0.748410,2.923429,-2.302765,158.714417,80.425537,-144.135056
732,944389109,45.859241,25.717087,134.172531,0.894141,1.259528,-2.494295,193.769989,94.433922,-92.849342
733,944405776,50.143429,27.389957,135.193466,1.875253,-0.556635,-2.944440,229.796356,105.436829,-37.740166
734,944422443,55.153709,28.397396,137.040466,1.722054,-1.040778,-2.349453,248.899124,112.080338,11.569886
735,944439110,60.171379,28.803045,139.448593,1.569116,-1.167329,-0.201674,232.023987,117.738075,47.493256
736,944455777,64.971504,28.709942,142.274567,2.796360,-1.846004,0.471402,206.558929,126.891350,73.629059
737,944472444,69.633659,28.159492,145.455261,3.496929,-2.680409,0.534641,188.977524,139.597061,95.418190
738,944489111,74.057579,27.204472,148.840851,3.865038,-3.117516,1.396689,171.181213,150.590271,110.687965
739,944505778,77.861900,25.971731,152.223648,4.234409,-3.063170,3.778397,137.542572,155.639954,115.978195
740,944522445,80.394508,24.666235,155.413559,5.168585,-2.582352,7.481737,70.260147,152.622665,109.749016
741,944539112,80.923355,23.517284,158.286118,6.498452,-2.620011,8.892456,-38.430923,141.552277,93.767746
742,944555779,79.710625,22.877510,160.832535,8.331487,-1.154287,7.852785,-132.725235,129.470337,61.691246
743,944572446,76.952118,22.728519,163.054504,8.833361,-0.895301,7.933666,-216.945374,116.057961,33.862377
744,944589113,72.978043,23.149271,164.822617,8.802095,-2.177151,6.272249,-279.550049,98.421860,1.227196
745,944605780,68.207222,24.182186,165.974884,8.536359,-3.948110,4.256016,-313.758606,77.835060,-37.145493
746,944622447,62.914459,25.828981,166.302567,8.401810,-5.097390,1.902660,-325.627350,54.611046,-82.318748
747,944639114,57.491322,27.950035,165.682587,8.627335,-5.358556,-0.590674,-308.299500,31.940987,-126.658813
748,944655781,52.282036,30.344946,164.158081,8.391743,-4.560853,-2.381595,-267.720001,14.769154,-163.210800
749,944672448,47.575813,32.815662,161.911652,8.443288,-3.318025,-3.377879,-211.492020,5.002317,-187.045471
750,944689115,43.531250,35.185627,159.156174,8.469584,-2.532730,-3.558033,-149.925018,-0.852729,-197.148529
751,944705782,40.122894,37.362904,156.099487,7.482385,-2.854956,-3.018832,-95.704315,-3.846666,-196.930130
752,944722449,37.013279,39.259598,152.782944,6.153934,-4.153978,-1.710634,-62.930016,-10.963558,-192.651184
753,944739116,33.968521,40.702778,149.283340,5.394745,-4.439430,-1.222215,-47.488976,-25.508713,-180.888565
754,944755783,31.133656,41.623932,145.899994,5.211141,-4.068804,-0.921571,-36.207275,-38.238125,-158.170853
755,944772450,28.975163,42.023407,142.925125,5.247768,-3.943587,-0.864164,-10.227165,-48.464146,-126.752449
756,944789117,27.676891,41.945293,140.507980,4.299138,-3.803292,-1.017406,19.368811,-57.875103,-92.292503
757,944805784,27.081675,41.395580,138.697052,3.017328,-3.767102,-1.454081,36.774906,-69.214806,-56.524925
758,944822451,26.873260,40.368225,137.453262,1.889534,-3.660718,-1.754451,36.590473,-83.137329,-21.940655
759,944839118,26.945723,38.772717,136.849487,1.152960,-3.137909,-2.447448,27.676199,-100.617523,18.806389
760,944855785,27.134548,36.648911,136.840744,0.270490,-2.192882,-2.869089,11.902761,-116.305527,57.940353
761,944872452,27.217794,33.995403,137.380493,-0.383527,-0.859275,-3.096665,-13.480336,-132.185165,96.602577
762,944889119,27.121002,30.854605,138.452881,-1.223780,0.936572,-3.214636,-40.061859,-145.468323,134.746490
763,944905786,27.231432,27.314163,140.038834,-2.153392,2.762961,-3.775871,-39.392029,-153.598709,171.373932
764,944922453,27.891171,23.524881,142.077682,-3.885282,4.739890,-4.535641,-12.709485,-153.018265,203.514450
765,944939120,29.062035,19.564381,144.471863,-5.578074,6.227640,-4.129391,17.691887,-147.736023,231.112045
766,944955787,30.456852,15.625996,147.099487,-8.369507,7.492625,-2.301174,36.211929,-133.088379,248.106384
767,944972454,31.835991,11.926071,149.842911,-11.160228,8.117300,0.074811,43.733459,-109.832886,251.985077
768,944989121,33.922333,8.769731,152.399994,-12.774049,8.541495,0.468223,97.793266,-79.631203,229.893463
769,945005788,38.019264,6.519795,154.469559,-13.490689,8.214869,0.047803,229.459274,-39.490219,179.235886
770,945022455,43.658974,5.400575,155.877655,-14.266104,5.405362,1.437717,329.800293,1.639646,107.819534
771,945039122,49.400326,5.404101,156.315811,-13.569920,2.071114,3.874067,342.214752,16.655453,18.133547
772,945055789,53.393871,6.354895,155.618164,-13.214254,0.328779,6.290125,244.095123,0.572055,-70.321640
773,945072456,55.081413,8.114655,153.919647,-12.965941,1.705084,6.224319,114.262886,-22.811649,-144.529129
774,945089123,55.250847,10.401550,151.605865,-12.424091,3.772424,3.781857,32.675549,-36.573399,-190.665787
775,945105790,54.919899,13.038324,148.985245,-11.403948,4.989207,1.512039,12.256943,-38.180828,-217.636322
776,945122457,54.675381,15.935583,146.281204,-9.931572,5.796214,-0.034006,26.078541,-30.628996,-232.402786
777,945139124,54.744148,18.971739,143.687515,-8.135983,5.351601,-0.914987,50.948364,-18.411230,-234.286453
778,945155791,54.988743,22.062738,141.327576,-6.737569,4.645249,-0.636106,64.436745,-4.196113,-227.836243
779,945172458,55.184341,25.036692,139.361984,-5.027649,4.219714,-0.143665,58.984100,11.007078,-208.066040
780,945189125,55.341908,27.810038,137.910034,-2.796754,3.145089,0.746632,48.344585,28.248434,-181.080246
781,945205792,55.447441,30.339073,137.065765,-0.997253,1.900620,1.272775,31.071051,47.283302,-149.933823
782,945222459,55.396511,32.547859,136.917816,0.689048,0.566813,0.809032,1.699846,66.525932,-113.314095
783,945239126,55.444492,34.437473,137.530472,2.638358,-1.399778,0.422312,-17.278122,87.133499,-75.848061
784,945255793,55.855946,35.916569,138.947845,4.520231,-2.534645,0.174258,-24.171675,105.005615,-33.940109
785,945272460,56.619987,36.982845,141.113388,6.139457,-3.253795,0.233814,-31.211126,119.978859,5.014233
786,945289127,57.750931,37.716885,143.900497,7.162855,-3.979621,0.727346,-33.450279,133.120224,35.155170
787,945305794,59.341278,38.184719,147.208862,7.429842,-4.165580,1.389567,-26.501135,145.694138,57.873425
788,945322461,60.895626,38.598652,150.819138,7.515502,-3.623555,2.568930,-41.104378,157.096878,63.209126
789,945339128,61.895893,39.230267,154.423508,7.451077,-3.720054,3.090402,-75.652855,163.386215,47.469681
790,945355795,61.951511,40.233440,157.676910,8.000060,-4.535544,2.851928,-121.237938,158.295181,17.750713
791,945372462,60.898952,41.640049,160.159775,9.522741,-6.043477,1.544847,-160.550781,136.714996,-20.066854
792,945389129,58.948166,43.303276,161.522125,11.440539,-6.906207,-0.709371,-172.024017,99.701408,-55.905098
793,945405796,56.381531,44.987129,161.668518,12.149483,-6.514603,-1.990983,-159.898239,56.860363,-81.738358
794,945422463,53.539486,46.517357,160.741714,11.678616,-5.346172,-2.548129,-130.468735,18.419708,-97.166046
795,945439130,50.928852,47.851250,159.106232,10.689742,-3.946089,-2.247833,-84.435638,-6.252647,-103.795876
796,945455797,48.787174,49.051575,157.172379,8.931771,-2.671292,-1.266742,-41.442127,-14.962438,-104.327484
797,945472464,47.170918,50.189140,155.171295,7.659312,-2.183503,-0.232588,-5.290055,-14.668218,-102.412994
798,945489131,46.209000,51.209309,153.253998,7.016226,-2.657388,0.342250,31.529366,-13.613373,-94.143532
799,945505798,45.971771,51.994019,151.614761,6.120561,-3.486730,0.880030,63.072193,-13.944016,-75.896927
800,945522465,46.285713,52.403915,150.196472,4.749673,-4.144030,1.261567,86.302208,-23.148130,-53.475430
801,945539132,47.033024,52.379326,148.995560,3.536725,-4.507061,0.836774,102.147720,-35.592472,-28.693636
802,945555799,47.978809,51.886868,147.981979,2.308823,-4.673026,0.694972,104.983826,-50.093056,-3.008253
803,945572466,48.900555,50.883034,147.119904,1.205591,-4.342829,0.604211,95.945984,-66.724701,24.084261
804,945589133,49.598080,49.355705,146.421967,0.173365,-3.618210,0.308534,74.209267,-82.780602,52.329506
805,945605800,49.859779,47.297852,145.864380,-0.674516,-2.960348,0.104342,40.914360,-99.410194,80.268280
806,945622467,49.543724,44.711540,145.470963,-1.352545,-1.907928,-0.235561,-1.755585,-115.499756,108.184967
807,945639134,48.767555,41.645653,145.305145,-1.372044,-0.654342,-1.307208,-39.532387,-128.431076,134.848572
808,945655801,47.663918,38.173817,145.462540,-1.947485,1.310694,-1.917871,-72.041031,-136.040848,160.585251
809,945672468,46.450809,34.440655,145.974686,-3.031033,3.135166,-1.837125,-90.741928,-137.106201,181.264999
810,945689135,45.295895,30.574305,146.891983,-4.698502,5.162481,-1.825762,-98.637772,-130.824646,199.249664
811,945705802,44.154381,26.651474,148.089737,-5.857271,6.080830,-1.702943,-102.672928,-125.440552,210.855026
812,945722469,43.600052,22.905300,149.438156,-7.572070,7.162262,-2.069407,-66.950912,-113.695038,209.120010
813,945739136,43.725914,19.430649,150.962570,-9.176761,7.170642,-1.728862,-25.275339,-94.493263,205.994934
814,945755803,43.960197,16.373463,152.420380,-11.418908,5.365988,-0.333633,-12.631792,-77.191925,187.422409
815,945772470,43.784985,13.837320,153.484818,-12.532066,3.529827,0.862577,-26.956245,-69.491081,150.219666
816,945789137,43.685936,12.013039,153.951584,-12.532311,2.717324,1.104644,-12.021265,-62.730595,95.676079
817,945805804,43.907604,11.082885,153.604202,-13.114746,2.578503,2.963108,17.642536,-56.908508,24.144413
818,945822471,43.966766,11.156533,152.257172,-13.573744,2.417419,3.021947,19.292345,-54.314892,-59.938461
819,945839138,43.539009,12.170896,149.836029,-12.651043,2.536335,-1.391144,3.841585,-56.883083,-144.639236
820,945855805,42.918194,13.881802,146.663605,-11.677695,3.019635,-3.243481,5.780521,-54.677906,-205.230621
821,945872472,42.625332,16.042065,143.154327,-10.983931,3.736501,-1.846951,36.888866,-45.452309,-237.157715
822,945889139,42.494801,18.436733,139.559647,-10.187799,5.000000,-0.151282,56.162373,-35.958904,-248.746445
823,945905806,41.991615,20.959011,135.971298,-8.345219,6.059279,-0.400862,42.442204,-26.698885,-251.661301
824,945922473,41.089268,23.539417,132.496155,-6.114043,6.095535,-1.142976,24.865673,-14.547980,-247.000427
825,945939140,40.108696,26.076281,129.369308,-3.511503,6.302676,-1.650536,19.926521,2.305884,-228.262619
826,945955807,39.336899,28.522709,126.836235,-1.573864,5.660133,-1.228533,23.426558,24.159912,-197.613632
827,945972474,38.843185,30.785383,125.046257,-0.065201,4.271724,-0.883985,23.534388,44.108150,-157.990723
828,945989141,38.892525,32.787086,124.178070,1.485963,2.896453,-0.947437,30.416008,63.322399,-109.807335
829,946005808,39.756901,34.434818,124.444275,2.847761,1.325053,-1.086720,43.042011,82.508232,-52.325916
830,946022475,41.537582,35.626289,125.970383,3.826824,-0.391593,-0.784636,54.312080,100.677177,10.357445
831,946039142,44.111126,36.262733,128.698517,4.513283,-2.154260,-0.254699,58.365379,115.674294,71.275391
832,946055809,47.277687,36.222179,132.486176,5.687038,-2.829648,0.373816,55.673317,127.048119,129.802948
833,946072476,50.923050,35.429691,137.161560,6.858391,-2.875473,0.664845,54.544384,138.373566,184.880569
834,946089143,54.614494,33.965214,142.359207,6.952171,-2.404078,1.649554,43.976021,148.579727,225.098236
835,946105810,57.779903,32.034061,147.717957,6.289252,-2.619632,3.467974,14.846623,157.216019,246.306702
836,946122477,59.782070,29.935162,152.820190,6.416633,-3.685718,5.562654,-37.371109,156.776642,243.760818
837,946139144,60.254589,28.054327,157.194168,8.207274,-4.963470,6.002528,-98.682487,140.020569,212.551941
838,946155811,59.485363,26.700735,160.511154,10.435502,-5.826460,5.051988,-137.455673,109.646576,159.116608
839,946172478,58.130150,26.006472,162.633179,12.155372,-6.356993,3.300064,-137.610916,73.556877,94.935867
840,946189145,56.615597,26.052425,163.453171,12.467365,-6.664610,2.006045,-112.250671,36.229660,21.766729
841,946205812,55.016632,26.818565,162.918869,11.557225,-6.402804,0.668860,-81.451698,-0.434585,-53.866634
842,946222479,53.312778,28.134457,161.152206,10.514399,-6.088641,-0.193336,-53.103703,-32.560413,-118.739098
843,946239146,51.454777,29.708427,158.366165,9.544686,-5.564196,-0.275949,-30.403542,-60.828148,-163.747696
844,946255813,49.379372,31.269613,154.879929,8.772949,-4.473818,0.035040,-18.141478,-81.829498,-186.646896
845,946272480,47.133293,32.647556,151.034988,8.208338,-3.269143,0.820856,-12.387552,-93.604057,-191.580063
846,946289147,44.814796,33.712482,147.161774,7.618228,-2.875914,1.523640,-11.650295,-98.060799,-180.684235
847,946305814,42.655727,34.339046,143.644882,7.074790,-3.550730,1.618015,-11.189279,-96.351364,-151.912323
848,946322481,40.962612,34.381336,140.601761,5.981794,-4.324613,1.282432,1.739148,-101.204308,-113.600395
849,946339148,39.692532,33.788872,138.175171,3.842759,-4.539712,1.041528,5.667866,-107.754555,-68.484444
850,946355815,38.700207,32.581459,136.411591,2.036853,-4.148559,0.980950,-1.342746,-114.736305,-22.409054
851,946372482,37.727188,30.802467,135.367920,0.365566,-2.708868,1.301594,-25.203070,-119.462677,24.600746
852,946389149,36.603905,28.489820,135.108200,-0.442448,-0.796834,0.963753,-59.406513,-121.400536,73.466263
853,946405816,35.414585,25.723173,135.684174,-1.752081,0.809007,-0.056205,-86.823982,-118.836342,122.901459
854,946422483,34.162071,22.550516,137.031143,-2.974494,2.079774,-1.471881,-107.916260,-116.886887,169.593674
855,946439150,32.785526,19.043598,139.023956,-4.545240,3.860760,-2.850371,-124.762970,-116.475174,209.695251
856,946455817,31.223753,15.354137,141.608582,-6.452625,6.069147,-2.357435,-139.274170,-111.788902,243.335678
857,946472484,29.402250,11.732443,144.713928,-8.758749,8.353782,-0.834394,-152.627045,-98.716667,266.421082
858,946489151,27.910164,8.353072,148.187790,-10.881900,9.253735,-1.112235,-125.589706,-82.016197,277.674896
859,946505818,28.041573,5.508406,151.629211,-13.204611,9.133738,-2.477230,-16.810785,-57.070465,261.396088
860,946522485,29.787487,3.424839,154.749405,-15.182236,6.995915,-2.017504,90.360397,-21.667999,224.113495
861,946539152,31.794655,2.261505,157.030411,-16.230648,1.555211,1.260945,113.838531,7.542651,153.432785
862,946555819,33.123943,2.041060,157.909363,-13.943583,-2.213686,3.037427,77.977440,14.671398,51.822128
863,946572486,33.745300,2.736914,157.064682,-11.718189,-0.929128,1.302225,39.573669,4.503272,-65.019020
864,946589153,34.179775,4.283255,154.710373,-11.855318,1.978587,-0.878329,34.874901,-4.252447,-168.536148
865,946605820,34.770096,6.461586,151.470535,-12.795743,3.611398,-1.584003,53.755283,-4.255091,-233.299866
866,946622487,35.457348,9.129457,147.805161,-14.180591,3.495204,-0.684049,71.178703,3.149801,-270.092896
867,946639154,35.683960,12.045451,143.870895,-14.349515,3.826406,-0.550579,57.077713,4.864514,-290.307404
868,946655821,35.191250,15.031986,139.815399,-12.379895,4.741963,-1.643713,27.518591,6.360552,-296.444183
869,946672488,34.340168,18.014338,135.902084,-8.830345,5.268895,-2.559860,15.824727,16.173393,-286.772095
870,946689155,33.677567,20.918356,132.403900,-5.581551,5.206457,-2.868299,30.283171,31.298130,-261.333405
871,946705822,33.455338,23.663834,129.524292,-2.858298,4.646931,-2.209502,52.275539,46.428959,-224.133316
872,946722489,33.772060,26.199804,127.376282,-0.800840,3.505580,-1.295602,73.395996,59.587753,-181.419922
873,946739156,34.623379,28.485447,126.206970,0.759026,2.244957,-0.409166,83.369881,75.977180,-128.489807
874,946755823,35.844395,30.392044,126.157120,2.882160,0.600502,0.398268,74.806969,89.509964,-67.986031
875,946772490,37.444870,31.794945,127.204300,5.156457,-1.298662,0.825275,63.670929,97.214737,-6.922457
876,946789157,39.849007,32.663288,129.464478,6.953901,-2.584365,0.810872,72.023598,109.884483,57.215069
877,946805824,43.400127,32.888432,132.974487,9.069411,-3.415839,0.210059,99.142288,125.258118,123.556992
878,946822491,48.042740,32.428391,137.466400,9.644669,-3.180791,-0.619428,133.168350,140.726120,178.344254
879,946839158,53.078510,31.348936,142.487442,7.782063,-2.988254,0.194193,143.017258,153.956238,212.680222
880,946855825,57.721649,29.837942,147.600372,6.084573,-3.100642,1.766018,122.484116,163.438766,224.735016
881,946872492,61.287998,28.132395,152.511887,5.227572,-3.307219,3.833863,71.253525,167.728622,219.154587
882,946889159,63.221153,26.560408,156.912384,6.062881,-3.875265,5.334159,-5.151336,161.169067,192.845840
883,946905826,63.682022,25.455460,160.600525,7.853047,-3.910878,4.596982,-69.184555,145.783234,148.427597
884,946922493,63.369732,25.040154,163.603043,9.087726,-3.622962,2.959491,-95.362709,132.240448,95.210724
885,946939160,62.788010,25.378002,165.832626,10.036152,-4.703025,1.739044,-91.664864,114.579147,37.017784
886,946955827,62.008385,26.501657,166.997437,10.298323,-5.678710,0.709128,-77.132950,84.406509,-30.315763
887,946972494,60.989288,28.354521,166.905670,10.501196,-5.657286,-0.557108,-58.395298,46.218441,-99.705605
888,946989161,59.976952,30.733397,165.663239,10.145415,-5.015746,-1.380415,-23.760189,11.331154,-155.809998
889,947005828,59.158852,33.380249,163.539536,9.180384,-4.498815,-0.923691,18.770992,-15.247394,-191.256836
890,947022495,58.280052,36.082478,160.748230,7.589522,-4.617341,0.894111,42.924408,-36.035980,-209.628342
891,947039162,56.882282,38.579899,157.372696,6.425797,-4.430834,2.565285,39.207699,-58.211491,-212.400314
892,947055829,54.786240,40.624107,153.521942,5.549848,-3.821315,3.042509,21.785608,-81.016525,-201.014526
893,947072496,52.159485,42.065620,149.429077,4.998742,-2.765780,2.998809,4.893279,-99.263855,-178.791016
894,947089163,49.484421,42.807217,145.417053,4.339318,-2.097681,2.780135,2.199799,-112.190712,-146.294067
895,947105830,47.150379,42.848770,141.764557,3.167669,-1.769874,2.588312,9.200370,-120.948021,-108.328362
896,947122497,45.117165,42.249146,138.725281,1.825553,-1.503917,2.203774,1.581759,-124.352982,-66.753929
897,947139164,43.099247,41.046215,136.385925,0.843986,-1.675259,1.641281,-27.532463,-127.395119,-24.675663
898,947155831,40.875725,39.200867,134.710388,0.112861,-1.219976,0.135565,-68.351860,-136.301163,17.321966
899,947172498,38.445873,36.737122,133.726181,-0.047582,-0.377195,-1.408573,-109.177452,-146.100601,58.899223
900,947189165,36.027218,33.634548,133.520142,0.076486,0.712961,-3.192530,-137.701233,-156.915237,104.989403
901,947205832,33.870808,29.980703,134.116898,-0.459495,2.109264,-4.542571,-147.957886,-164.858871,150.917328
902,947222499,32.016541,25.883219,135.437729,-1.506437,3.822156,-5.155338,-148.077988,-170.822556,192.841583
903,947239166,30.773329,21.476198,137.365723,-2.901054,5.589577,-5.206565,-120.764381,-173.076019,228.551758
904,947255833,30.505596,16.992289,139.794449,-5.307438,8.307796,-4.983039,-63.816753,-163.877792,255.847137
905,947272500,31.646805,12.665663,142.556625,-8.509520,9.999697,-4.109339,26.252192,-142.141312,271.555573
906,947289167,34.026730,8.887967,145.390625,-13.491446,10.182576,-1.160094,111.163162,-102.359489,263.589233
907,947305834,36.196259,5.922556,148.047775,-18.096554,6.605243,3.426701,109.811615,-57.101059,231.978119
908,947322501,36.897305,3.803037,149.867737,-18.422375,1.547544,5.047351,33.028786,-39.861237,163.423309
909,947339168,35.953571,2.847341,150.211823,-15.991707,0.111905,4.357125,-57.604443,-36.379913,50.902981
910,947355835,34.756046,3.144511,149.032196,-13.449340,3.097095,1.473041,-67.951241,-28.820660,-67.703224
911,947372502,34.712017,4.641571,147.028168,-11.228976,5.828728,-0.378565,5.705915,3.007738,-149.512482
912,947389169,35.950859,7.012976,144.774094,-10.966478,5.396044,-0.767675,88.216454,35.813351,-191.813385
913,947405836,37.581940,9.901668,142.413177,-11.767311,3.461502,0.415794,118.830200,52.524803,-215.768692
914,947422503,38.623245,13.010895,139.940872,-11.330642,3.569219,0.374853,92.070480,54.633678,-229.311172
915,947439170,39.025986,16.287214,137.431107,-9.261802,4.386243,-0.863712,62.379803,59.352650,-236.548798
916,947455837,39.304127,19.638048,135.119156,-6.674794,4.839398,-1.369645,59.595390,70.090485,-229.098389
917,947472504,39.730656,22.931923,133.184402,-4.604312,4.768417,-1.085539,67.850281,81.188095,-209.029129
918,947489171,40.305908,26.094328,131.727173,-3.021579,3.865855,-0.286278,70.905014,91.723946,-182.776367
919,947505838,41.002625,29.055218,130.828552,-1.434566,3.102550,0.401284,66.874863,101.210556,-151.847687
920,947522505,41.831192,31.716314,130.655167,-0.110201,1.836651,1.383987,55.091888,111.370888,-112.204903
921,947539172,42.781910,33.970665,131.190765,0.986958,0.833227,2.426836,39.737354,115.774902,-70.929955
922,947555839,43.849617,35.848820,132.432663,1.843844,0.253573,3.318313,21.549282,121.472610,-32.697559
923,947572506,45.038502,37.345791,134.341522,3.436608,-0.556298,3.906038,3.189466,126.064377,2.909401
924,947589173,46.548599,38.437832,136.782318,6.268264,-2.627696,3.036460,0.808507,126.081238,33.776371
925,947605840,49.479485,38.991135,139.772659,9.035879,-5.183444,0.604772,63.780186,123.813515,69.142685
926,947622507,53.520252,38.937084,143.378799,8.020778,-4.425169,-0.199842,106.520157,127.180420,107.442986
927,947639174,56.607769,38.632095,147.013199,6.128603,-5.174252,1.540982,48.811901,126.396843,112.527397
928,947655841,58.045197,38.297218,150.338486,6.704074,-5.772842,2.224822,-37.672695,118.172806,101.446892
929,947672508,57.766552,37.957058,153.206451,8.612729,-5.781498,1.062912,-122.754005,101.352905,89.431351
930,947689175,56.202915,37.645927,155.442871,10.501371,-6.145073,-1.745954,-175.846359,76.248985,73.671295
931,947705842,54.027882,37.332054,156.910599,11.706101,-6.524221,-3.602640,-183.881531,44.053204,55.682423
932,947722509,51.695183,37.110207,157.467453,11.995531,-6.054492,-3.975606,-159.957993,10.660876,26.964849
933,947739176,49.529446,37.141403,157.130798,11.400549,-4.830149,-3.493935,-117.537720,-13.788856,-11.358089
934,947755843,47.980343,37.527004,156.106018,10.059279,-3.707540,-2.791249,-55.439236,-24.048969,-49.297932
935,947772510,47.101341,38.241531,154.585327,8.383074,-3.989386,-1.041467,3.509572,-26.740810,-79.892586
936,947789177,46.563042,39.189640,152.584564,7.123353,-4.587423,0.628160,43.010834,-31.965628,-105.206177
937,947805844,45.932949,40.186436,150.212524,6.111539,-5.040936,1.817298,53.313988,-40.330082,-118.559448
938,947822511,45.003189,41.086864,147.533829,5.646008,-4.844299,2.496960,49.121044,-51.640827,-123.654221
939,947839178,43.877670,41.820724,144.711334,5.187057,-4.222178,3.071639,44.823391,-60.023941,-121.048805
940,947855845,42.740883,42.344555,141.978317,4.633132,-3.651464,3.726583,41.937397,-63.204891,-109.707756
941,947872512,41.812305,42.626690,139.526306,3.897462,-3.347380,3.825557,43.898975,-63.059101,-91.247612
942,947889179,41.193256,42.650620,137.629257,2.781060,-3.178897,3.080242,40.205494,-57.011147,-63.244308
943,947905846,40.772144,42.385838,136.206421,1.586722,-3.409415,2.565703,32.678936,-55.864101,-36.663883
944,947922513,40.273251,41.713802,135.169968,0.641820,-3.203237,1.754151,11.970509,-63.263134,-8.483563
945,947939180,39.827503,40.497669,134.602600,-0.271370,-2.874809,0.932946,-4.110252,-74.974266,27.736471
946,947955847,39.356411,38.771271,134.507660,-1.119848,-1.551058,0.912813,-24.380028,-85.237030,63.053268
947,947972514,38.606865,36.606083,134.964584,-1.419751,0.207335,0.501097,-61.481560,-89.960167,99.000496
948,947989181,37.590965,34.060272,136.026657,-2.070904,1.569507,-0.257658,-97.553001,-90.747887,135.569641
949,948005848,36.127151,31.114193,137.618057,-2.872669,2.417927,-1.593041,-138.994705,-95.786934,170.806473
950,948022515,34.325890,27.768410,139.672989,-3.120696,2.982647,-3.257250,-168.408905,-104.656181,203.903351
951,948039182,32.872002,24.069126,142.080292,-3.767986,4.533508,-4.855824,-150.103699,-115.569412,231.416122
952,948055849,32.074528,20.198732,144.733200,-5.972106,6.762218,-3.973832,-107.579697,-119.311615,249.438217
953,948072516,32.160580,16.380825,147.404785,-8.972843,9.015166,-2.221111,-44.928699,-115.641731,251.041306
954,948089183,33.057419,12.837236,149.926346,-11.445627,9.222812,-0.825171,15.839906,-102.730530,238.232651
955,948105850,34.459511,9.786878,151.887054,-12.236401,7.419218,0.548498,61.236847,-90.578522,197.925705
956,948122517,35.631203,7.422036,153.093155,-12.693377,4.518195,1.880140,59.674694,-77.585968,140.354874
957,948139184,35.375561,5.997271,153.371552,-13.366550,1.726835,4.468178,-17.081577,-62.450245,63.431332
958,948155851,33.496975,5.749489,152.492233,-12.621366,0.481935,3.837807,-107.119537,-44.413231,-34.614956
959,948172518,31.236757,6.386643,150.477859,-10.983767,2.702393,-0.777133,-122.645157,-34.507278,-121.729889
960,948189185,29.986359,7.694455,147.726974,-9.503606,4.858229,-3.123286,-54.614910,-18.331192,-180.690369
961,948205852,30.160231,9.551399,144.566162,-9.315465,6.132951,-2.450890,39.012653,0.009702,-217.858551
962,948222519,31.258034,11.767325,141.227829,-9.663078,6.258611,-1.596426,103.029877,11.342279,-236.921310
963,948239186,32.290112,14.247301,137.703583,-10.670278,5.312956,-0.921089,109.614777,15.567307,-253.303421
964,948255853,32.644684,16.816149,134.120819,-9.562003,5.314564,-1.945397,78.933189,16.419151,-257.295013
965,948272520,32.584114,19.394493,130.640228,-7.541664,5.106573,-2.743122,61.356163,20.891882,-250.404709
966,948289187,32.423512,21.946569,127.418884,-5.427044,5.063264,-2.194363,58.667366,29.543844,-234.637405
967,948305854,32.241920,24.435402,124.693314,-3.037705,4.381515,-1.328577,53.569767,43.371349,-206.743118
968,948322521,32.106682,26.830160,122.652328,-1.202755,3.330744,-0.641843,44.917892,60.430962,-169.842361
969,948339188,32.121716,29.082304,121.422951,0.359316,1.592206,0.172229,35.536636,77.423668,-126.910629
970,948355855,32.328083,31.151052,121.105034,1.838575,-0.637103,1.473600,22.010101,93.815857,-80.040588
971,948372522,32.989666,33.005196,121.820465,4.059907,-1.977514,1.475049,16.959761,110.889038,-29.301424
972,948389189,34.484921,34.695194,123.656372,6.159755,-2.597948,1.582467,28.425261,132.719162,19.880276
973,948405856,36.833157,36.280567,126.438553,6.934347,-2.440912,1.290341,44.058289,154.092209,55.120232
974,948422523,39.955574,37.790672,130.014679,7.558132,-3.018525,1.660570,58.180626,174.936890,78.122032
975,948439190,43.445011,39.127148,134.025848,6.831761,-3.370791,1.697458,59.761269,182.770355,87.532661
976,948455857,46.939556,40.250980,138.179977,5.677245,-4.155559,1.797819,50.601124,181.117905,87.508354
977,948472524,49.969501,41.209488,142.142410,4.427262,-4.969121,2.593224,26.797499,170.494980,76.635727
978,948489191,51.914505,42.084805,145.609116,3.660502,-5.095160,3.843805,-21.361023,151.294846,57.358589
979,948505858,52.463158,42.991932,148.422806,3.958461,-4.604107,4.480791,-81.031395,129.150894,33.475628
980,948522525,51.591785,44.014206,150.469986,4.893832,-4.535131,3.405152,-136.641052,105.484444,6.692206
981,948539192,49.314148,45.142296,151.691727,5.809165,-4.887339,1.980560,-187.905762,80.869171,-18.708969
982,948555859,45.800076,46.243374,152.082489,6.621372,-5.002868,0.449977,-227.415710,54.171631,-37.453705
983,948572526,41.180225,47.224102,151.672424,7.493981,-5.031893,-0.509857,-259.064636,28.572176,-52.475220
984,948589193,35.810455,48.008541,150.538193,8.701404,-4.054683,-1.407931,-271.705048,5.750129,-64.932098
985,948605860,30.342674,48.552128,149.031998,9.683821,-2.436945,-1.730120,-260.394470,-8.041266,-67.909340
986,948622527,25.545397,48.943756,147.590042,10.403545,-1.483635,-1.294642,-222.567764,-8.536999,-61.103050
987,948639194,21.709791,49.162247,146.169144,10.269842,-1.265808,-0.762505,-165.514816,-12.955576,-56.117134
988,948655861,19.027220,49.197361,144.895355,9.579766,-1.667014,-0.394322,-102.881371,-17.998955,-47.228008
989,948672528,17.522724,48.992252,143.888351,8.597486,-2.523794,0.048347,-44.364887,-26.689043,-33.354080
990,948689195,17.049681,48.485584,143.177307,7.476520,-3.450881,0.409065,3.930301,-39.996006,-17.466610
991,948705862,17.456425,47.606731,142.798935,6.374248,-3.962941,0.555685,41.535873,-57.479164,1.516292
992,948722529,18.507812,46.348507,142.691025,4.889170,-4.309532,0.424682,68.065186,-75.798012,19.481943
993,948739196,19.910351,44.647499,142.843018,3.489495,-4.474522,0.079798,77.892052,-96.911552,39.996758
994,948755863,21.367399,42.464966,143.207748,2.385529,-4.171091,-0.544127,72.581047,-119.600586,61.383396
995,948772530,22.814503,39.755207,143.803146,1.297054,-3.442883,-1.224190,63.565800,-143.171448,86.470001
996,948789197,24.386244,36.601463,144.687286,0.061650,-1.900711,-1.875513,61.728634,-159.344955,114.351967
997,948805864,25.918438,33.106277,145.878937,-1.633516,-0.672203,-2.090851,51.273876,-167.524628,142.623199
998,948822531,26.983200,29.245228,147.400543,-3.477231,0.340685,-2.205546,16.822655,-175.237473,173.498718
999,948839198,27.153982,24.982317,149.238846,-5.343157,1.411711,-2.060003,-39.811867,-185.680832,204.185394
1000,948855865,26.540295,20.404631,151.429794,-7.800642,2.885341,-1.487883,-87.307709,-192.862778,232.614716
1001,948872532,25.082457,15.633534,154.020966,-10.160389,5.593539,-1.272681,-135.300400,-195.883423,258.102539
1002,948889199,22.682302,10.873665,156.901733,-12.036608,7.763394,-0.517052,-183.330978,-195.549408,269.828796
1003,948905866,19.678438,6.529541,159.883743,-13.955134,8.538155,1.157275,-206.976501,-181.644119,259.446747
1004,948922533,17.174469,2.987057,162.692322,-13.683534,8.930419,2.229211,-163.937225,-151.050186,226.832657
1005,948939200,16.263737,0.638407,165.042847,-12.265715,8.833763,2.717020,-58.883129,-96.872398,175.831818
1006,948955867,17.237738,-0.256452,166.479721,-10.489087,6.089249,2.503706,58.361359,-29.020071,98.307701
1007,948972534,19.232843,0.066526,166.719254,-8.589864,2.287926,1.385342,119.945076,20.465075,7.857025
1008,948989201,21.259853,1.205474,165.569183,-8.634850,0.226741,0.662055,122.591682,37.810360,-88.125099
1009,949005868,22.997620,2.900134,163.284683,-9.712889,0.619292,1.110728,109.358383,40.159321,-164.941711
1010,949022535,24.516291,4.976586,160.359589,-10.964343,2.288635,0.884533,103.336685,41.057720,-210.201279
1011,949039202,25.976057,7.298565,157.072784,-11.746243,3.773146,-0.147913,108.815636,39.945957,-236.536179
1012,949055869,27.489897,9.775128,153.628845,-11.467706,4.418849,-0.971906,121.633011,38.356701,-249.125061
1013,949072536,28.861221,12.291549,150.170837,-10.246821,4.058386,-1.189776,122.107323,34.509872,-250.597534
1014,949089203,29.888474,14.745867,146.849045,-8.356474,3.710645,-0.876139,108.346298,30.852013,-240.904129
1015,949105870,30.587305,17.097870,143.820938,-6.410381,3.626927,-0.755997,91.890671,31.524397,-221.819931
1016,949122537,31.108952,19.392311,141.233383,-4.727530,3.595013,-0.120397,80.025513,40.179592,-196.996445
1017,949139204,31.450317,21.615398,139.233078,-3.082814,2.939497,0.402004,62.641819,53.230450,-165.155075
1018,949155871,31.486008,23.712431,137.955612,-1.490198,1.622351,0.492270,31.799858,68.000496,-125.836563
1019,949172538,31.422716,25.673435,137.454330,-0.309947,0.027307,0.584318,8.892926,83.715698,-84.537354
1020,949189205,31.586716,27.506050,137.692459,1.217113,-1.096773,0.849507,3.573433,98.025909,-46.391666
1021,949205872,32.610516,29.220379,138.641022,3.081624,-2.638833,0.471419,34.520218,111.338043,-12.052382
1022,949222539,34.786755,30.668476,140.613571,4.022897,-2.557151,0.322587,71.623116,126.758980,37.301643
1023,949239206,37.440907,31.784664,143.640198,4.132887,-3.049954,0.576478,65.225662,143.181107,86.172783
1024,949255873,40.105167,32.627419,147.437561,4.395467,-3.403659,1.010860,38.544296,157.688629,118.834229
1025,949272540,42.431595,33.273788,151.647858,5.195990,-4.334342,2.458021,2.312962,166.492752,133.954086
1026,949289207,43.878178,33.773949,155.787460,6.797912,-4.860198,3.633473,-50.221157,161.034805,130.738388
1027,949305874,44.266838,34.219128,159.462509,8.406991,-4.733496,3.543125,-99.786263,143.866043,112.990044
1028,949322541,43.572422,34.596508,162.413452,9.926482,-4.636720,2.506246,-141.512375,115.153862,89.762764
1029,949339208,42.146477,34.900066,164.540756,11.180490,-4.084998,0.603818,-158.098953,82.197403,64.749603
1030,949355875,40.490219,35.127663,165.854446,12.235846,-3.245897,-0.559484,-144.395432,50.373505,39.744923
1031,949372542,38.919888,35.294407,166.351730,12.153978,-2.417651,-1.404016,-111.217430,20.746025,12.654181
1032,949389209,37.636906,35.346161,166.330994,12.294724,-1.936286,-2.271310,-76.050377,-0.727902,-2.411690
1033,949405876,36.683006,35.639439,165.434921,10.488860,-2.292203,-2.436504,-25.804781,-14.969458,-45.191761
1034,949422543,35.841400,36.027649,163.934372,9.693392,-2.478191,-1.949338,2.430165,-26.956015,-72.291756
1035,949439210,35.249928,36.432487,162.084335,8.887196,-2.716239,-1.511236,30.340017,-34.864685,-86.624908
1036,949455877,34.854279,36.842518,160.014771,8.077121,-3.004209,-0.835505,50.588112,-39.670914,-95.338615
1037,949472544,34.499405,37.223385,157.815842,7.228279,-3.810349,-0.014779,58.398304,-43.721600,-99.247612
1038,949489211,34.164021,37.490330,155.644150,6.287242,-4.380803,0.582221,59.172264,-47.783791,-94.185722
1039,949505878,33.902023,37.551582,153.625458,5.641791,-4.509872,1.072196,58.284477,-53.321800,-81.289818
1040,949522545,33.922920,37.365372,151.889206,4.990270,-4.454602,1.055489,64.846107,-58.015724,-62.010700
1041,949539212,34.535015,36.910706,150.526917,4.012240,-4.667943,1.015088,86.307030,-61.819679,-38.143570
1042,949555879,35.609829,36.111313,149.474731,2.510068,-4.873334,1.038326,102.283440,-71.027031,-13.580439
1043,949572546,36.989639,34.915203,148.706619,0.977478,-4.618970,1.008201,109.790817,-82.665825,12.642617
1044,949589213,38.304222,33.336838,148.222595,-0.874807,-3.841704,1.342905,95.393295,-92.287117,39.197334
1045,949605880,39.025810,31.341122,148.026978,-2.363937,-2.793943,1.579006,49.795845,-102.307533,67.456108
1046,949622547,38.945976,28.954924,148.143494,-3.253797,-1.497071,1.079874,-8.076442,-110.097382,95.152855
1047,949639214,38.111050,26.179928,148.658936,-3.943444,0.196849,0.202953,-64.182442,-115.785477,125.533279
1048,949655881,36.722252,23.037409,149.661545,-4.490915,1.951038,-1.010564,-108.143738,-119.124840,158.372040
1049,949672548,35.044781,19.618113,151.186340,-5.854431,3.480340,-2.122192,-133.682205,-118.857353,189.661194
1050,949689215,33.134151,16.014339,153.203079,-7.710017,4.534575,-2.330549,-151.412430,-117.067749,216.955185
1051,949705882,30.654928,12.348729,155.625290,-9.675652,5.490004,-1.495036,-184.090973,-114.827568,236.188385
1052,949722549,27.484589,8.718236,158.336349,-11.093621,6.337340,-0.741187,-219.664795,-115.211876,245.970749
1053,949739216,24.222834,5.368528,161.049042,-11.856758,7.207278,-0.686063,-215.374695,-112.933296,233.350601
1054,949755883,21.862549,2.608125,163.402817,-12.502322,7.408573,0.095266,-151.194641,-99.757523,194.779480
1055,949772550,21.092867,0.833870,164.980942,-12.065660,6.298310,1.073837,-48.817635,-66.889809,127.336105
1056,949789217,21.816469,0.218573,165.454895,-10.178612,4.519305,0.904021,43.355392,-26.426691,40.247627
1057,949805884,23.393377,0.629376,164.677872,-8.435408,3.051550,0.070088,95.156914,2.382496,-52.242176
1058,949822551,25.223787,1.796028,162.814270,-8.434601,2.627810,-0.297030,112.375534,15.325994,-130.433411
1059,949839218,27.001177,3.532926,160.163452,-9.442391,3.030301,0.227662,114.202583,21.196096,-188.275955
1060,949855885,28.587349,5.607057,157.101379,-10.065041,4.239655,0.413702,109.961281,22.235106,-219.796371
1061,949872552,29.954205,7.840478,153.896179,-10.214182,5.533603,0.049837,104.674622,21.060944,-231.885849
1062,949889219,31.243889,10.166691,150.663376,-9.437592,6.023802,-0.544465,107.876244,20.170559,-235.722183
1063,949905886,32.581593,12.493219,147.584274,-7.837518,5.935804,-0.894732,116.691696,20.299250,-227.344376
1064,949922553,34.030167,14.731505,144.826675,-5.984625,5.468970,-0.846252,125.986473,21.514109,-207.938263
1065,949939220,35.601250,16.852020,142.577209,-4.518682,4.803514,0.043389,131.126526,27.893929,-179.077896
1066,949955887,37.247746,18.812643,141.047989,-2.937673,3.884408,0.892343,127.020432,40.388565,-139.951141
1067,949972554,38.960354,20.576014,140.349548,-1.669400,2.693773,1.654788,117.019310,56.506336,-96.164162
1068,949989221,40.844067,22.132765,140.479279,-0.420425,1.903751,2.086131,110.332664,73.902298,-54.185303
1069,950005888,42.910656,23.536699,141.454102,0.521098,1.101742,2.183583,101.445030,96.293930,-15.921979
1070,950022555,45.156246,24.756596,143.340408,0.798572,-0.191927,2.450261,88.586838,121.988449,23.548296
1071,950039222,47.527805,25.708910,146.130951,0.052690,-1.648678,2.469987,71.064331,146.590881,63.397469
1072,950055889,49.738106,26.410467,149.586411,-0.992222,-3.464154,2.564941,41.683846,165.154907,91.675537
1073,950072556,51.344738,27.016973,153.398376,-1.120824,-5.087205,2.219980,-6.260702,178.417145,101.920586
1074,950089223,52.531052,27.580509,157.531342,1.299925,-6.315822,1.183172,-42.386227,191.885834,109.414810
1075,950105890,53.771259,28.033413,161.960464,3.408128,-6.494494,0.768685,-49.395351,201.930084,119.405754
1076,950122557,54.922935,28.524372,166.400955,4.702438,-6.525144,1.888539,-56.953503,205.346893,113.018837
1077,950139224,55.708691,29.161011,170.595596,6.540253,-5.925626,1.796230,-74.085251,200.534546,94.251617
1078,950155891,56.204426,29.949179,174.387466,8.750381,-5.313116,0.551901,-82.288689,187.973877,71.832901
1079,950172558,56.487366,30.893328,177.566788,10.874592,-4.748463,-0.802708,-79.421371,165.823807,44.244225
1080,950189225,56.616188,31.945358,179.945724,12.379606,-4.348930,-1.447820,-66.478943,133.920334,14.725178
1081,950205892,56.540916,33.102299,-178.618622,12.823129,-3.721563,-1.641109,-50.632820,96.341087,-17.663774
1082,950222559,56.149292,34.460022,-178.244095,12.508975,-3.126877,-1.312174,-35.796913,58.163063,-57.174267
1083,950239226,55.271198,36.059444,-178.993530,11.677556,-2.386316,-0.704612,-26.530706,21.186516,-99.666222
1084,950255893,54.025070,37.859772,179.307251,10.556692,-1.520529,-0.511189,-13.261361,-6.507623,-134.908783
1085,950272560,52.603523,39.777294,176.938614,9.361359,-1.007224,-0.423138,4.010612,-22.641344,-158.059357
1086,950289227,51.272095,41.696194,174.138458,8.888099,-0.781799,-0.146443,29.976889,-31.841146,-168.757980
1087,950305894,50.187351,43.544647,171.086945,8.324055,-1.134762,0.441730,59.116772,-36.702122,-170.748535
1088,950322561,49.332546,45.222168,167.903824,7.593057,-1.982471,1.302166,82.523788,-41.776474,-164.599426
1089,950339228,48.586010,46.597050,164.690643,6.846442,-2.871992,1.882176,93.905930,-49.616302,-149.880188
1090,950355895,47.960804,47.544468,161.619980,6.250444,-3.790498,2.093407,97.611824,-58.420418,-125.527885
1091,950372562,47.702015,47.909893,158.805313,5.348288,-4.312329,1.335740,109.662270,-72.079941,-92.090607
1092,950389229,47.949490,47.671822,156.365646,3.702538,-4.936853,1.228482,123.496651,-85.076355,-55.017864
1093,950405896,48.360252,46.902447,154.177536,1.143717,-5.180378,1.792229,121.336670,-99.743599,-24.598642
1094,950422563,48.410995,45.664185,152.138062,-1.177887,-4.937863,2.153591,91.717697,-115.173080,-0.193442
1095,950439230,47.806473,43.977234,150.279968,-2.692250,-4.109160,2.115190,42.548855,-129.058929,22.964813
1096,950455897,46.691967,41.828442,148.794250,-3.243098,-2.391491,0.554908,-5.946763,-138.078842,50.761005
1097,950472564,45.387619,39.228012,147.868622,-2.950622,-0.753708,-0.982316,-41.931541,-141.312317,83.414497
1098,950489231,44.105270,36.255852,147.506897,-2.651677,0.633643,-1.942653,-63.416428,-141.358368,113.751312
1099,950505898,43.042248,32.995216,147.687698,-2.539920,1.952714,-2.977478,-69.709953,-138.203949,141.714035
1100,950522565,42.434902,29.479544,148.392166,-2.702061,3.208997,-4.062871,-58.135143,-133.008987,170.086411
1101,950539232,42.500237,25.761536,149.635056,-4.063789,4.597445,-4.357703,-30.443394,-122.537651,199.737549
1102,950555899,43.273914,21.970243,151.418365,-6.424243,6.279522,-3.916759,3.315207,-102.649551,226.870361
1103,950572566,44.540722,18.241240,153.609329,-8.975780,7.338933,-2.830831,30.989538,-78.131409,244.449326
1104,950589233,46.176971,14.796683,155.957870,-11.506006,7.523573,-1.642763,58.269894,-51.622898,242.311462
1105,950605900,47.879898,11.798789,158.172195,-13.154019,6.663328,0.099071,71.785576,-30.514977,220.057770
1106,950622567,48.881023,9.442146,159.894150,-13.248402,3.948944,3.159750,41.218204,-20.504780,173.440643
1107,950639234,48.494083,7.950058,160.729355,-11.861443,1.346235,5.169447,-30.589266,-24.391302,100.219208
1108,950655901,47.046951,7.461270,160.420776,-10.233718,1.266546,3.598571,-84.152519,-35.781048,9.639845
1109,950672568,45.650280,7.892679,159.043564,-9.228610,3.149262,0.052442,-72.573128,-43.855457,-75.014969
1110,950689235,45.280815,9.060647,156.960678,-8.437238,4.447595,-1.868371,-3.565979,-41.428600,-136.412369
1111,950705902,46.002045,10.733112,154.462631,-8.124084,4.150412,-1.531204,69.195305,-37.871494,-174.756531
1112,950722569,47.250175,12.709444,151.666077,-8.669169,3.821263,-0.745543,109.117920,-40.449860,-198.818954
1113,950739236,48.340851,14.793632,148.671356,-8.575575,3.877345,-0.490451,108.285271,-47.739361,-209.687851
1114,950755903,49.067390,16.916332,145.598633,-8.018391,4.289556,-0.775229,94.089096,-51.650467,-212.551208
1115,950772570,49.439922,19.068092,142.608536,-6.982137,4.633687,-1.041895,77.894089,-47.457371,-209.019867
1116,950789237,49.699806,21.368193,139.778702,-5.807368,4.771206,-0.756706,74.389214,-34.232635,-208.227219
1117,950805904,49.994026,23.657217,137.353333,-4.341226,5.023355,-0.808403,73.481010,-16.634039,-191.528931
1118,950822571,50.362305,25.849653,135.524292,-2.846236,4.441811,-0.290963,68.151497,5.260574,-164.740051
1119,950839238,50.681370,27.889687,134.331024,-1.567172,3.221210,0.452366,51.608479,26.091578,-134.979736
1120,950855905,50.946579,29.803432,133.851822,-0.838022,2.263995,1.082174,29.890886,50.599934,-104.814926
1121,950872572,51.124603,31.608805,134.108963,-0.400396,1.557963,1.267902,2.917091,75.999794,-75.786568
1122,950889239,51.335667,33.294102,135.154877,0.193345,0.561555,0.960044,-20.891273,102.174934,-45.580559
1123,950905906,51.764774,34.862278,136.998016,1.086285,-0.541505,0.365840,-36.091702,127.806175,-16.625820
1124,950922573,52.748390,36.266811,139.610779,2.221503,-1.978577,0.027775,-32.029419,149.979675,11.535148
1125,950939240,54.487110,37.440216,143.002518,2.676075,-2.343898,0.122338,-17.604403,170.400970,40.034714
1126,950955907,56.750843,38.419540,147.043259,2.745356,-2.613727,0.889705,-13.077516,188.532272,59.629192
1127,950972574,59.310585,39.273514,151.558502,2.965691,-3.099427,1.919582,-16.214287,203.639832,68.394882
