sep=,
DeviceTag:,DOT5
FirmwareVersion:,3.0.0
AppVersion:,2023.6.0
SyncStatus:,Synced
OutputRate:,60Hz
FilterProfile:,Dynamic
Measurement Mode:,Custom modes - custom mode1
StartTime: ,2026-06-01_12:38:03_138 GMT+2
© Movella Technologies B. V. 2005-2026

PacketCounter,SampleTimeFine,Euler_X,Euler_Y,Euler_Z,FreeAcc_X,FreeAcc_Y,FreeAcc_Z,Gyr_X,Gyr_Y,Gyr_Z
1,84956023,-124.570328,-5.350105,162.809601,0.070246,0.547007,-0.628705,-29.832914,-37.125816,-5.444369
2,84972690,-125.178642,-5.097093,163.350784,-0.014345,0.519426,-0.510102,-33.293018,-37.878185,-5.836432
3,84989357,-125.832329,-4.858065,163.901016,-0.031863,0.480677,-0.372907,-36.106190,-37.775070,-7.229498
4,85006024,-126.436256,-4.624002,164.440857,-0.130830,0.277164,-0.030722,-33.307732,-37.018162,-7.492205
5,85022691,-126.923935,-4.417135,164.945374,-0.336850,0.224212,0.305225,-26.624521,-34.286163,-7.873014
6,85039358,-127.295723,-4.242450,165.412369,-0.437577,0.252254,0.343841,-19.941740,-31.272188,-8.296290
7,85056025,-127.566322,-4.081528,165.832352,-0.460010,0.297629,0.414845,-14.154798,-28.493519,-7.405620
8,85072692,-127.715485,-3.931198,166.209579,-0.506409,0.382764,0.501345,-7.117109,-26.054192,-6.441458
9,85089359,-127.723923,-3.799269,166.541412,-0.473060,0.457479,0.423162,1.059990,-22.879398,-5.403919
10,85106026,-127.648956,-3.665874,166.836975,-0.245630,0.567064,0.034877,5.903680,-21.566290,-4.280556
11,85122693,-127.533119,-3.521333,167.114304,-0.122052,0.543404,-0.147094,8.245531,-21.121218,-3.054256
12,85139360,-127.465828,-3.367033,167.416229,0.011196,0.635251,-0.574064,5.354197,-22.287659,-3.162687
13,85156027,-127.528099,-3.191173,167.731888,0.072430,0.767922,-0.782552,-2.398980,-24.096157,-2.933108
14,85172694,-127.684654,-3.003318,168.039154,-0.032083,0.828582,-0.512597,-8.161377,-23.785810,-1.817712
15,85189361,-127.880104,-2.812061,168.322281,-0.055451,0.899284,-0.243137,-10.608766,-23.107916,-1.118330
16,85206028,-128.089401,-2.618614,168.594910,-0.063977,1.031622,0.068626,-11.525138,-22.693541,-0.702007
17,85222695,-128.308578,-2.416731,168.894257,-0.012290,0.983204,0.072422,-12.101468,-24.261728,-1.370654
18,85239362,-128.511780,-2.185625,169.272980,-0.199903,1.064327,-0.107635,-11.018762,-29.076494,-3.034462
19,85256029,-128.672821,-1.977014,169.663589,0.296596,0.892003,-0.209776,-8.547689,-28.784477,-4.618945
20,85272696,-128.810730,-1.784244,170.065552,0.438425,1.004673,-0.444617,-7.219552,-28.708935,-5.856081
21,85289363,-128.906219,-1.617475,170.458221,0.403376,1.071299,-0.218351,-4.763028,-27.287657,-6.778395
22,85306030,-128.964691,-1.485891,170.802872,0.483696,1.123373,-0.161909,-2.682193,-23.707714,-6.641797
23,85322697,-129.038589,-1.364976,171.090439,0.668630,1.102290,-0.126099,-3.734505,-20.640528,-5.012209
24,85339364,-129.148636,-1.216741,171.359253,0.864631,0.985707,-0.114090,-5.973698,-20.486311,-2.798960
25,85356031,-129.310379,-1.024187,171.605759,0.977348,0.914535,-0.128944,-9.146837,-21.104750,0.081263
26,85372698,-129.503845,-0.784907,171.807770,1.197275,0.769751,-0.355364,-11.142073,-21.144699,3.603644
27,85389365,-129.693588,-0.497986,171.961487,1.285408,0.617905,-0.378512,-11.005454,-20.745291,7.587823
28,85406032,-129.849121,-0.184098,172.057480,1.267612,0.563474,-0.371171,-9.021310,-19.137705,10.992345
29,85422699,-129.982590,0.145002,172.094788,1.285015,0.506017,-0.378613,-7.728083,-17.048922,13.907319
30,85439366,-130.109833,0.485291,172.094391,1.220515,0.351475,-0.378245,-7.355740,-15.778734,15.842941
31,85456033,-130.230652,0.839244,172.052689,1.228671,0.262491,-0.464640,-6.941196,-14.450188,18.035833
32,85472700,-130.322144,1.226559,171.977600,1.150994,0.064872,-0.547536,-5.126828,-14.248083,20.834257
33,85489367,-130.367477,1.641924,171.869736,1.078101,-0.114065,-0.610291,-2.279421,-13.862511,23.374588
34,85506034,-130.345749,2.065897,171.720505,0.978556,-0.190593,-0.649452,1.874567,-12.311663,25.370190
35,85522701,-130.273682,2.474214,171.523636,0.924309,-0.167597,-0.713843,5.070580,-9.507423,26.505144
36,85539368,-130.199509,2.860237,171.291107,0.866031,-0.194321,-0.821596,5.380161,-6.983630,26.867846
37,85556035,-130.156937,3.233963,171.038452,0.761719,-0.238601,-0.796698,3.640068,-5.558151,27.084808
38,85572702,-130.118668,3.589940,170.766556,0.595320,-0.298583,-0.766536,3.546261,-3.979276,27.009068
39,85589369,-130.064468,3.923588,170.483307,0.522569,-0.254004,-0.711414,4.644895,-2.574762,26.421652
40,85606036,-129.955109,4.220339,170.192490,0.298958,-0.149165,-0.540241,8.078643,-0.771123,25.012226
41,85622703,-129.790344,4.477578,169.901962,0.079255,-0.075682,-0.438414,11.486420,0.786843,23.170744
42,85639370,-129.630081,4.702228,169.623138,-0.099473,-0.023646,-0.330295,11.233068,1.557940,21.206110
43,85656037,-129.514893,4.910923,169.364960,-0.326635,0.017845,-0.193334,8.487300,1.261882,19.668350
44,85672704,-129.430099,5.114130,169.110535,-0.538586,0.126029,-0.020577,6.700784,1.333469,19.265074
45,85689371,-129.366211,5.303908,168.847778,-0.716574,0.324889,0.025335,5.542014,2.243016,18.945940
46,85706038,-129.314316,5.469948,168.569260,-0.733089,0.463251,-0.132354,4.961641,3.891080,18.437115
47,85722705,-129.298920,5.611450,168.264053,-0.698787,0.759816,-0.425151,2.970379,6.064602,18.302418
48,85739372,-129.358704,5.757492,167.927750,-0.750278,0.975070,-0.477080,-1.307863,7.315901,19.691744
49,85756039,-129.510941,5.899312,167.581924,-0.709139,1.120537,-0.535477,-6.746306,7.873440,19.873396
50,85772706,-129.738708,6.041192,167.250702,-0.585410,0.770152,-0.872068,-11.314946,7.128701,19.350685
51,85789373,-129.984055,6.173436,166.956696,-0.602949,0.512332,-0.895121,-12.558966,5.714159,17.525373
52,85806040,-130.240845,6.266412,166.674164,-0.981115,0.266997,-0.948277,-13.286403,6.629338,15.318125
53,85822707,-130.520905,6.300559,166.380936,-1.172164,0.227417,-0.862532,-14.592576,9.328755,13.086310
54,85839374,-130.930618,6.302268,166.072830,-1.087838,0.613643,-0.802257,-22.269020,11.190264,12.262798
55,85856041,-131.490799,6.278393,165.726913,-0.802976,0.695302,-0.780939,-31.051378,13.793803,12.710830
56,85872708,-132.189697,6.273488,165.426712,-0.537225,0.326105,-1.009809,-39.676991,10.864971,11.922513
57,85889375,-132.942017,6.340848,165.240189,-0.261693,0.122170,-1.436024,-43.622681,2.788391,10.702771
58,85906042,-133.688797,6.464516,165.109406,-0.301561,-0.011306,-1.489508,-43.645832,-2.088744,10.947184
59,85922709,-134.374084,6.544165,165.003464,-0.465014,-0.069705,-1.165835,-40.109879,-1.451506,8.027061
60,85939376,-134.980118,6.550423,164.910919,-0.739048,0.154548,-0.436555,-35.442616,0.989801,4.349203
61,85956043,-135.588989,6.496013,164.867065,-0.417148,-0.088222,-0.467936,-35.947903,1.486113,-0.237162
62,85972710,-136.196030,6.435929,164.932816,0.010211,-0.425968,-0.583884,-36.580727,-2.814413,-5.121015
63,85989377,-136.690598,6.397402,165.126968,-0.184526,-0.796947,-0.242626,-30.691435,-8.972202,-9.776855
64,86006044,-137.070602,6.334323,165.434143,-0.131470,-1.110250,0.084583,-24.561760,-12.429595,-15.753700
65,86022711,-137.365112,6.230699,165.790100,-0.123054,-1.388795,0.435528,-19.725828,-12.527892,-19.602104
66,86039378,-137.512177,6.092975,166.194870,-0.022225,-1.471642,0.665398,-11.152813,-12.916072,-23.171900
67,86056045,-137.490616,5.897993,166.615387,-0.031188,-1.567931,1.032969,-1.065747,-10.999123,-26.203720
68,86072712,-137.247787,5.635703,167.010345,0.010610,-1.733642,1.076950,12.461665,-7.059089,-27.801003
69,86089379,-136.878326,5.341385,167.385284,0.268053,-2.049303,0.867661,20.286097,-4.993960,-28.219875
70,86106046,-136.379272,5.012063,167.703674,0.675345,-2.044989,0.510193,28.486389,-1.370505,-27.198479
71,86122713,-135.708511,4.651456,167.873886,1.127612,-1.956994,0.114186,39.649586,5.846353,-22.143135
72,86139380,-134.852798,4.202763,167.824554,1.456166,-2.158003,0.045527,51.831779,18.541395,-16.645964
73,86156047,-133.835770,3.673947,167.580765,2.390138,-1.980528,-0.543901,62.283710,29.949663,-12.294656
74,86172714,-132.852463,3.175946,167.291122,3.549890,-0.864265,-0.653705,60.292225,30.461216,-9.632429
75,86189381,-132.091660,2.720147,166.887802,4.422973,0.126807,-0.899785,47.146358,33.631016,-3.669626
76,86206048,-131.469620,2.402130,166.319214,5.216918,-0.295757,-0.599192,39.104641,35.470032,8.657954
77,86222715,-130.952179,2.259936,165.679489,5.931643,-1.135100,-0.094181,32.865505,31.819447,19.021862
78,86239382,-130.606796,2.292101,164.997787,7.051156,-1.204508,0.415648,22.607079,27.038094,28.318878
79,86256049,-130.542725,2.543414,164.214493,7.839857,-0.679025,0.886561,6.088567,23.216728,42.150227
80,86272716,-130.842133,2.989955,163.217041,8.651355,-0.829058,0.892342,-14.810630,25.221684,59.434326
81,86289383,-131.464767,3.608800,162.038422,10.053410,-1.144185,0.249016,-33.017467,26.096130,74.548660
82,86306050,-132.322769,4.331256,160.646622,10.180287,-1.643919,0.491084,-45.422073,30.451546,88.016212
83,86322717,-133.329071,5.008685,159.046387,9.482777,-2.281595,0.744374,-52.278656,39.947075,94.966652
84,86339384,-134.434265,5.503276,157.282440,7.983734,-2.375834,1.232065,-56.328030,52.792946,94.538551
85,86356051,-135.586746,5.716449,155.345688,6.812482,-2.471821,1.735527,-57.495632,70.119560,90.918991
86,86372718,-136.338684,5.499349,153.198761,6.126093,-3.097231,2.376878,-32.230831,95.890533,83.189667
87,86389385,-136.376541,4.734426,150.940140,6.041044,-4.411488,1.590302,10.112388,123.781059,66.081955
88,86406052,-136.364304,3.518236,149.038742,6.947551,-5.317019,-2.052995,9.245421,128.748581,32.085625
89,86422719,-137.369980,2.120245,147.844833,7.658870,-3.389101,-4.989759,-56.507820,107.561386,-5.072718
90,86439386,-139.826035,0.701712,147.394470,6.248191,-0.789561,-5.444305,-146.376892,79.157158,-35.973907
91,86456053,-143.217407,-0.820573,147.428604,4.059214,0.201002,-4.456648,-203.150146,67.696625,-58.389416
92,86472720,-146.699234,-2.672863,147.804001,1.457990,0.297763,-2.655141,-207.882538,75.551178,-82.192780
93,86489387,-149.718765,-4.994486,148.515244,-2.026510,1.167599,-1.731365,-177.970123,93.456169,-109.517181
94,86506054,-152.103531,-7.657790,149.606110,-4.387243,1.794319,-1.225578,-135.524536,105.500336,-134.467377
95,86522721,-154.068375,-10.500441,151.216766,-5.436382,1.980736,-1.524174,-102.293152,106.364418,-162.209747
96,86539388,-156.249924,-13.215566,153.444931,-6.049145,3.600495,-2.730053,-103.071846,90.335243,-187.068436
97,86556055,-158.980423,-15.456807,156.181229,-8.647293,5.154401,-2.259988,-122.824081,61.221874,-198.177811
98,86572722,-162.177368,-17.152464,159.342407,-12.700376,5.679709,0.111725,-138.211472,32.867798,-205.386276
99,86589389,-165.374283,-18.404129,162.826981,-16.672449,5.423863,3.754741,-127.628059,13.919245,-211.991013
100,86606056,-168.410065,-19.156773,166.361755,-18.040224,4.578471,7.032682,-113.535011,-4.135758,-205.634262
101,86622723,-171.315964,-19.292166,169.239166,-15.352365,2.778502,6.200661,-117.202034,-23.290503,-161.726440
102,86639390,-173.293015,-18.900608,170.691879,-12.037088,0.354945,1.898753,-89.894470,-36.907036,-78.111366
103,86656057,-173.284073,-18.259972,170.405746,-10.403201,-1.232273,0.369668,-4.771577,-38.877785,21.149406
104,86672724,-171.126465,-17.628582,168.675186,-10.343746,0.694117,1.504047,97.618622,-26.750877,103.491814
105,86689391,-167.795151,-16.808781,165.978104,-11.059491,3.776446,0.504473,152.189682,-22.744513,161.175507
106,86706058,-164.651428,-15.476480,162.900375,-10.908888,6.953560,-1.482691,137.483521,-38.060730,191.530304
107,86722725,-162.567551,-13.641501,159.754593,-9.688031,9.004223,-2.763417,77.801437,-56.743549,206.544128
108,86739392,-161.618256,-11.410671,156.648849,-7.179842,9.030810,-2.468466,16.781488,-74.110474,214.474060
109,86756059,-161.382065,-9.337673,153.689453,-5.293661,7.631972,-1.784556,-17.542046,-65.224831,205.336121
110,86772726,-161.450378,-7.675961,151.045303,-3.721369,5.143239,-2.491802,-27.296247,-47.213272,180.733459
111,86789393,-161.683411,-6.345768,148.928848,-1.887943,3.002541,-3.735219,-29.208658,-38.590752,145.049194
112,86806060,-162.003235,-5.177051,147.367706,0.034289,1.837349,-3.633024,-28.321629,-40.325581,110.643517
113,86822727,-162.310776,-4.208739,146.193314,0.715001,1.681119,-2.658276,-23.947041,-36.521244,84.893295
114,86839394,-162.410416,-3.497614,145.160187,0.202817,1.102770,-1.903108,-9.874247,-24.656487,72.104698
115,86856061,-162.131119,-2.982554,144.282410,0.531560,0.253157,-1.987646,14.047606,-16.157656,59.729214
116,86872728,-161.578751,-2.535710,143.661957,1.126069,-0.317459,-2.469945,31.615860,-16.627350,43.921272
117,86889395,-161.168808,-2.048834,143.377975,1.672890,0.281574,-2.460913,24.181246,-24.971819,25.694557
118,86906062,-161.202698,-1.474211,143.304367,1.247752,0.902069,-1.887427,-1.903238,-33.934460,15.525529
119,86922729,-161.497681,-0.849070,143.316864,-0.122396,0.523545,-1.129447,-17.415012,-38.498077,11.514030
120,86939396,-161.711716,-0.205986,143.475525,-0.767484,-0.493184,-1.822705,-12.486609,-42.336346,3.367357
121,86956063,-162.003433,0.560886,143.963913,0.944406,-0.164996,-2.300441,-17.327745,-55.566040,-13.295642
122,86972730,-162.520309,1.489831,144.771210,1.416404,0.360323,-1.611356,-31.611837,-70.552795,-28.919441
123,86989397,-163.091766,2.445887,145.752457,0.944781,0.226630,-0.475366,-36.039124,-74.901596,-39.033916
124,87006064,-163.296738,3.238531,146.808136,0.187948,-0.700914,-0.055769,-15.170677,-66.523972,-46.591137
125,87022731,-162.807587,3.835357,147.946686,0.288859,-1.202269,-0.409851,25.400324,-56.832691,-54.566933
126,87039398,-161.810486,4.345551,149.174774,0.825093,-1.379482,-1.310760,54.831608,-54.198204,-60.502419
127,87056065,-160.669556,4.865693,150.524811,1.262121,-1.381059,-1.092154,62.211346,-58.213772,-66.200584
128,87072732,-159.678024,5.336436,151.975540,1.068443,-1.180297,-0.478687,52.012749,-58.667889,-71.764542
129,87089399,-158.919388,5.669231,153.462891,1.364330,-0.878497,-0.366510,37.221489,-52.769695,-75.824112
130,87106066,-158.192245,5.836650,154.854584,1.228947,-0.934474,-0.284493,35.518082,-42.409950,-73.444824
131,87122733,-157.255692,5.857895,156.164719,1.210556,-1.227191,-0.163241,48.445347,-33.507698,-71.669861
132,87139400,-156.192856,5.780718,157.465378,1.627171,-1.206716,-0.049613,56.115784,-29.108541,-72.937737
133,87156067,-155.163925,5.657437,158.778839,1.884256,-1.145990,0.387258,54.140045,-28.237154,-74.293640
134,87172734,-154.266129,5.538797,160.059662,1.955999,-1.180091,0.761324,46.626953,-28.908363,-71.987778
135,87189401,-153.420929,5.436063,161.264435,1.633888,-1.512450,1.112171,44.055981,-28.861593,-67.096970
136,87206068,-152.487106,5.355051,162.354645,1.685376,-1.689659,0.856082,50.132534,-27.956615,-60.007271
137,87222735,-151.435333,5.339426,163.384888,2.286597,-1.534204,0.491216,57.599758,-30.774971,-54.559223
138,87239402,-150.387787,5.414276,164.387711,2.797139,-1.011673,0.386952,57.467129,-35.715416,-49.961330
139,87256069,-149.521088,5.580782,165.380890,2.999452,-0.520711,0.192496,46.545143,-41.013046,-46.140957
140,87272736,-148.867630,5.833858,166.343262,2.815915,-0.609085,0.048629,33.718853,-45.133266,-41.373680
141,87289403,-148.215530,6.139003,167.264877,2.387994,-1.259574,0.012978,33.611057,-46.982124,-37.159428
142,87306070,-147.401642,6.430324,168.170013,2.208099,-1.356900,-0.056095,43.140118,-46.212925,-36.173122
143,87322737,-146.557953,6.712928,169.077423,2.313916,-0.735897,-0.260054,44.640450,-46.352928,-35.914719
144,87339404,-145.851334,7.026734,169.982025,2.566547,-0.241693,-0.523487,36.154182,-48.279591,-34.112232
145,87356071,-145.291245,7.396793,170.894135,2.538167,-0.077800,-0.709627,26.984352,-51.671246,-32.035877
146,87372738,-144.742584,7.790598,171.832611,2.308473,-0.313242,-0.422920,25.728252,-54.019981,-31.991226
147,87389405,-144.046921,8.141776,172.820953,2.170799,-0.557338,-0.226994,33.770397,-53.982719,-35.289532
148,87406072,-143.220978,8.419224,173.867035,2.060880,-0.506534,-0.216574,40.764462,-52.893547,-39.954781
149,87422739,-142.413254,8.656962,174.962128,2.057626,-0.196220,-0.469643,38.956074,-53.293125,-42.956161
150,87439406,-141.795105,8.921477,176.082642,1.978060,0.059880,-0.513986,27.064077,-55.992348,-42.490147
151,87456073,-141.352005,9.219455,177.186996,1.679893,0.026388,-0.081996,16.387783,-57.332787,-39.960335
152,87472740,-140.933136,9.521059,178.276993,1.584543,-0.228841,0.233456,14.730615,-57.233425,-38.703762
153,87489407,-140.409378,9.805240,179.352264,1.464757,-0.333421,0.540015,20.844006,-56.154285,-38.197334
154,87506074,-139.807449,10.070337,-179.592682,1.301090,0.042403,0.545921,25.436390,-54.851517,-37.450821
155,87522741,-139.213654,10.329675,-178.510681,1.130688,0.421531,0.370079,24.377918,-55.977791,-38.297863
156,87539408,-138.686462,10.601697,-177.365067,1.111650,0.694060,0.184477,19.390808,-59.356613,-40.067322
157,87556075,-138.223709,10.888921,-176.188492,0.970239,0.692224,0.063799,14.849021,-61.553585,-40.289730
158,87572742,-137.770187,11.169474,-175.039749,1.102045,0.264499,0.137316,14.271608,-60.437954,-38.819061
159,87589409,-137.268082,11.415024,-173.971573,1.186770,-0.206611,0.283393,17.821993,-55.968979,-36.210114
160,87606076,-136.739166,11.624273,-173.024216,1.316600,-0.364303,0.193136,20.629578,-49.823685,-31.984171
161,87622743,-136.268921,11.813705,-172.217056,1.348738,-0.201989,-0.020795,18.624140,-43.543064,-26.384708
162,87639410,-135.927444,12.002962,-171.558350,1.580110,-0.126908,-0.229683,12.579246,-37.657379,-19.798061
163,87656077,-135.752396,12.177731,-171.014114,1.964007,-0.076844,-0.437857,3.909508,-32.425392,-15.409887
164,87672744,-135.682465,12.313664,-170.575897,2.150661,0.167545,-0.308835,-1.134300,-26.439875,-12.511827
165,87689411,-135.663727,12.384052,-170.265656,2.156787,0.451995,-0.281758,-2.611065,-18.387526,-9.866782
166,87706078,-135.690186,12.387673,-170.080688,2.218197,0.617051,-0.333949,-3.720401,-10.387827,-7.412358
167,87722745,-135.751328,12.326381,-170.019073,2.365691,0.455612,-0.343374,-4.213751,-2.547747,-4.962782
168,87739412,-135.849976,12.216546,-170.074951,2.396544,0.383787,-0.279550,-4.959657,4.349389,-2.054587
169,87756079,-135.990219,12.054684,-170.236938,2.026890,0.268044,-0.021925,-6.125562,10.929912,0.261166
170,87772746,-136.248886,11.873806,-170.452652,1.629587,0.193171,0.357627,-12.590755,13.940656,1.794216
171,87789413,-136.736572,11.700938,-170.742157,1.742306,0.216672,0.548243,-25.464899,16.571596,5.382303
172,87806080,-137.352585,11.539017,-171.206680,1.830255,-0.129956,0.910460,-31.100019,23.055492,13.549692
173,87822747,-137.872742,11.352114,-171.881638,2.007562,-0.433373,1.246854,-22.925287,32.380867,21.944778
174,87839414,-138.258453,11.154242,-172.718826,2.210908,-0.499066,1.035227,-13.092804,39.096973,28.905771
175,87856081,-138.620422,10.968406,-173.639740,2.525638,-0.072838,0.662442,-10.870078,41.661377,33.369907
176,87872748,-139.039017,10.805857,-174.666824,2.734467,0.185290,0.461402,-13.228335,44.520523,39.321274
177,87889415,-139.513687,10.644286,-175.875153,3.045976,0.389550,1.062857,-14.739452,51.160969,47.846916
178,87906082,-139.986343,10.443510,-177.359650,3.488175,0.242193,1.685672,-11.810693,63.115101,59.237659
179,87922749,-140.514709,10.233449,-179.104980,4.235897,-0.284421,2.075751,-12.658023,72.905960,71.334633
180,87939416,-141.176697,10.067573,178.985413,4.797487,-0.429683,2.726244,-19.273769,76.273041,81.360191
181,87956083,-142.032471,10.027192,176.888535,5.322013,-0.659084,3.777717,-29.141163,76.183517,95.770882
182,87972750,-143.061707,10.112906,174.525864,5.816808,-1.720805,4.533111,-36.707722,78.141563,114.115585
183,87989417,-144.230301,10.308605,171.915009,6.478713,-2.721738,4.564813,-42.084023,79.281372,131.308304
184,88006084,-145.452469,10.577821,169.052216,6.634693,-3.695143,4.604866,-41.928318,81.417435,147.586472
185,88022751,-146.666382,10.837317,165.768158,6.940860,-5.235194,3.879241,-35.954556,92.536034,169.494446
186,88039418,-147.987411,11.003405,162.263031,8.381836,-6.195269,1.997710,-39.144794,100.441216,179.380295
187,88056085,-149.367996,10.940010,158.535278,9.805457,-6.762970,0.105465,-39.985085,114.747711,185.774826
188,88072752,-150.310516,10.309328,154.479782,9.991272,-7.543035,-0.953577,-11.410639,150.218094,187.951477
189,88089419,-150.656067,8.902457,150.370819,9.437306,-9.721905,-5.236681,20.671204,190.546555,170.143829
190,88106086,-151.641739,7.069614,146.912643,10.833874,-8.956998,-9.638551,-30.034267,192.805588,127.107735
191,88122753,-153.684708,4.984406,144.398773,9.682740,-7.879701,-11.116806,-106.449394,177.378845,75.986862
192,88139420,-156.699432,2.559553,143.113464,8.349106,-4.768395,-11.295429,-175.513931,161.735764,8.992809
193,88156087,-159.902237,-0.525185,143.150558,5.664068,-2.011173,-10.300278,-191.899048,168.539154,-70.328476
194,88172754,-162.999725,-4.360867,144.665131,3.554969,3.045163,-10.514423,-181.633087,186.679504,-159.132736
195,88189421,-166.674438,-8.301028,147.381424,-0.301106,10.062613,-9.615333,-202.117935,183.158890,-218.044312
196,88206088,-172.089066,-11.510424,151.125351,-8.331985,16.717607,-5.294016,-285.767700,145.833664,-252.868774
197,88222755,-179.513626,-13.414344,155.560394,-18.432304,18.988253,5.183619,-387.527802,92.266174,-267.445221
198,88239422,172.335571,-14.112601,160.216248,-30.191151,11.073246,14.864202,-422.058533,56.173363,-268.133179
199,88256089,165.567688,-13.739585,164.791367,-33.990402,-3.927447,11.100117,-339.539520,26.466969,-265.680206
200,88272756,162.026138,-13.099240,168.258835,-25.404873,-11.080385,-1.516048,-163.891556,16.927210,-204.859100
201,88289423,162.975204,-13.160641,169.364578,-15.100846,-2.987271,-4.402613,72.256317,20.274452,-60.315262
202,88306090,165.567764,-13.748993,168.479675,-10.301722,5.328084,-3.143458,143.435120,17.309523,59.475483
203,88322757,167.287460,-13.942280,166.597244,-7.435517,8.309232,-1.683207,76.385780,-17.139872,109.521347
204,88339424,167.612305,-13.674996,164.447952,-5.248660,8.834560,-1.612291,-11.045012,-45.542419,118.947144
205,88356091,167.556396,-13.665823,162.545151,-4.141925,8.785327,-1.602571,-30.086878,-27.069302,108.411789
206,88372758,167.502426,-14.124422,161.202835,-1.462416,9.031749,-1.564966,-22.328566,7.298727,82.473213
207,88389425,167.007843,-14.686193,160.618027,-1.186957,6.748446,0.296197,-38.150898,22.691830,40.784283
208,88406092,166.442093,-15.316664,160.504318,-2.680000,4.166727,1.511822,-35.454845,32.616657,15.294945
209,88422759,166.224670,-15.926273,160.353302,-3.726948,3.118572,1.018019,-15.229031,30.790014,17.318211
210,88439426,166.328369,-16.422459,159.741455,-3.930154,3.371136,-0.228566,-3.747946,17.866259,41.513100
211,88456093,167.073227,-16.821316,158.540909,-4.325379,2.575258,-0.234843,24.339546,4.718246,72.875336
212,88472760,168.650101,-17.124147,157.007278,-3.720735,2.410971,0.457716,68.000679,-3.437340,90.060837
213,88489427,170.613510,-17.238567,155.402863,-3.046364,2.926246,1.769186,89.614128,-12.493929,91.898216
214,88506094,172.473679,-17.124058,153.837250,-2.828143,3.400594,2.230404,84.110001,-22.689964,87.960815
215,88522761,174.111954,-16.775381,152.327866,-2.809302,3.694887,1.682929,72.142349,-33.592323,83.792107
216,88539428,175.598557,-16.163097,150.863388,-2.841554,3.916572,1.040759,64.532845,-46.842087,80.828484
217,88556095,177.178421,-15.522453,149.349319,-2.291101,3.407215,0.309415,70.239914,-46.566593,85.000435
218,88572762,179.058563,-14.727640,147.792770,-2.789984,2.570521,-0.227800,88.683357,-53.322704,88.747398
219,88589429,-178.786148,-13.935822,146.403992,-1.795260,2.231100,-0.797410,108.936516,-50.020645,81.049759
220,88606096,-176.542801,-13.041327,145.247177,-0.685884,2.682177,-1.120799,118.655266,-53.579514,69.831917
221,88622763,-174.405258,-11.967757,144.274979,0.046617,2.482576,-1.508522,115.867249,-62.424706,62.062386
222,88639430,-172.473007,-10.699432,143.519836,0.116317,1.678269,-1.868360,107.277618,-73.231972,53.033924
223,88656097,-170.639221,-9.277291,143.022339,0.066625,0.492078,-1.951172,105.095512,-82.793877,41.814285
224,88672764,-168.686966,-7.799690,142.829956,-0.484751,-0.767118,-1.911117,115.667244,-87.875900,27.346886
225,88689431,-166.603516,-6.304090,143.027283,-0.212668,-1.156751,-1.872935,126.704872,-92.880463,7.928148
226,88706098,-164.613235,-4.768994,143.540649,0.438536,-0.886615,-2.124417,122.631622,-99.542091,-6.591407
227,88722765,-162.943008,-3.156563,144.218933,0.980396,-0.795684,-1.913182,103.271332,-106.940575,-11.746533
228,88739432,-161.504532,-1.511640,144.975891,0.503350,-1.628559,-1.174807,88.403030,-110.538582,-12.869735
229,88756099,-159.966324,0.079508,145.914734,0.478516,-2.094451,-0.728841,93.241966,-111.407928,-21.465406
230,88772766,-158.242081,1.586268,147.098724,0.950912,-2.195708,-1.563259,102.664001,-112.494614,-33.907845
231,88789433,-156.526917,3.072421,148.511353,1.620851,-2.066754,-2.358172,99.706245,-117.575462,-43.677803
232,88806100,-155.055313,4.522732,150.034821,1.422149,-1.966382,-2.085080,82.485756,-119.459229,-47.291939
233,88822767,-153.754074,5.864145,151.550598,0.770094,-1.885189,-0.687700,70.086662,-114.408607,-46.709423
234,88839434,-152.451691,7.015448,153.043457,0.447653,-2.224777,0.240843,68.342644,-104.562141,-47.919559
235,88856101,-150.968185,7.971716,154.597061,0.801085,-2.472489,0.108190,77.099770,-97.012871,-53.976696
236,88872768,-149.343857,8.801914,156.271439,1.045706,-2.642531,-0.992286,83.051018,-95.354652,-61.210140
237,88889435,-147.720154,9.540596,158.015900,1.553914,-2.686234,-1.742682,80.984253,-94.430290,-64.785980
238,88906102,-146.075195,10.149754,159.653534,1.458734,-2.413714,-1.412457,82.141602,-86.175980,-60.926907
239,88922769,-144.322998,10.613684,161.175766,1.256138,-2.141084,-0.534286,88.918152,-76.817055,-57.673687
240,88939436,-142.491302,10.924930,162.640930,1.490280,-1.897202,-0.425575,93.720879,-69.163368,-57.998253
241,88956103,-140.750854,11.145809,164.157974,2.340611,-1.361716,-0.822228,87.249619,-68.539940,-61.595318
242,88972770,-139.126190,11.336752,165.703003,2.597398,-1.399201,-0.868190,79.655014,-69.967941,-62.001774
243,88989437,-137.489731,11.484592,167.248535,2.800703,-1.730005,-0.454117,80.087387,-69.764679,-61.767258
244,89006104,-135.749786,11.553059,168.789352,2.716603,-1.660583,-0.006202,86.179771,-67.881653,-62.807163
245,89022771,-133.971832,11.537591,170.326035,3.054106,-1.085108,0.134324,88.469849,-66.053848,-64.170189
246,89039438,-132.312302,11.482610,171.836731,3.440227,-0.891591,-0.124876,81.730125,-65.230026,-62.936951
247,89056105,-130.888168,11.425000,173.307358,3.855085,-0.712818,-0.197308,68.173958,-65.049934,-59.794838
248,89072772,-129.621277,11.368648,174.658493,3.583749,-0.490762,0.589975,60.242203,-61.136257,-53.726208
249,89089439,-128.423737,11.281611,175.850357,3.373435,-0.123467,1.359319,58.058636,-53.856346,-48.000900
250,89106106,-127.329346,11.175169,176.894180,3.664648,0.067277,1.335674,53.718449,-47.238140,-42.554218
251,89122773,-126.392159,11.087276,177.855347,4.005139,0.185195,0.765135,45.348606,-44.778927,-37.963215
252,89139440,-125.641411,11.055286,178.758011,3.966243,0.171997,0.508344,34.896820,-44.530678,-32.608288
253,89156107,-125.000862,11.062286,179.606064,3.555845,0.253386,0.715669,28.924427,-43.656338,-28.333477
254,89172774,-124.516457,11.053068,-179.626663,3.154373,0.671637,0.783802,20.488230,-39.472263,-26.021132
255,89189441,-124.232399,11.027224,-178.987762,2.953204,0.748608,0.754275,9.956964,-32.839569,-22.328209
256,89206108,-124.162270,11.002368,-178.478729,3.169924,0.553367,0.563032,-1.372385,-26.619236,-17.890984
257,89222775,-124.218224,10.981716,-178.090576,3.112488,0.298407,0.800351,-7.544853,-20.878996,-13.683847
258,89239442,-124.320465,10.944440,-177.871552,2.834955,0.160584,1.401305,-8.378910,-12.062327,-8.924026
259,89256109,-124.489449,10.860474,-177.837723,3.181753,-0.023519,1.450607,-10.267598,-1.455327,-5.095329
260,89272776,-124.775810,10.741856,-177.997238,3.877573,-0.049270,1.167567,-15.132935,9.121825,-0.327548
261,89289443,-125.211494,10.587352,-178.329437,4.990201,-0.250547,0.614909,-22.196722,18.706436,3.823135
262,89306110,-125.828178,10.446115,-178.802490,6.000759,0.186494,0.401965,-31.565559,24.979467,9.494410
263,89322777,-126.633980,10.396527,-179.495987,5.643536,-0.059355,1.863564,-40.566780,32.114639,21.963793
264,89339444,-127.734100,10.437528,179.559586,5.779248,-0.513560,3.420834,-55.503788,40.260471,35.815384
265,89356111,-129.116974,10.569204,178.310501,6.293321,-0.785885,4.175845,-69.050301,50.170570,52.158993
266,89372778,-130.626984,10.821910,176.624634,6.750405,-1.209811,4.505290,-71.564964,63.918011,75.524475
267,89389445,-132.189835,11.200796,174.431747,7.002666,-1.771739,4.809314,-68.369553,79.186882,102.634865
268,89406112,-133.842117,11.682031,171.772537,6.845136,-2.202951,5.347253,-67.210083,92.008789,127.955307
269,89422779,-135.692642,12.247082,168.774139,5.742394,-3.311530,5.627664,-73.450943,98.449615,148.169846
270,89439446,-137.843048,12.788113,165.614365,5.642938,-4.362785,5.359900,-87.638817,100.496109,157.235458
271,89456113,-140.370804,13.308297,162.289932,6.022990,-5.451456,3.425169,-106.325005,100.998947,167.479523
272,89472780,-143.280838,13.828198,158.781967,5.593957,-7.160973,1.688064,-124.906471,99.323463,180.281006
273,89489447,-146.270126,14.244970,155.132324,4.697513,-8.495779,0.747388,-125.921707,99.499817,188.124420
274,89506114,-149.067917,14.390671,151.488632,4.318966,-8.724117,-0.482071,-113.482590,103.296532,183.826569
275,89522781,-151.656036,14.193396,148.045609,3.836274,-8.462789,-1.866798,-103.979027,106.682335,168.308762
276,89539448,-154.163208,13.600547,144.945618,3.412006,-7.988566,-3.661174,-105.452621,111.288338,144.711792
277,89556115,-156.738876,12.623365,142.314926,2.908040,-7.534362,-5.848132,-118.434631,114.604126,115.641426
278,89572782,-159.419006,11.212368,140.288361,2.035306,-6.253337,-7.387929,-135.403259,120.368263,78.938210
279,89589449,-162.170395,9.317486,138.927231,1.167908,-4.075293,-8.349358,-150.237045,131.226532,38.665928
280,89606116,-164.987274,6.920427,138.294525,0.770126,-1.878646,-9.649817,-163.353790,146.016632,-4.433822
281,89622783,-168.091003,4.158147,138.566101,1.442918,0.607937,-10.916798,-187.488510,154.853165,-54.180515
282,89639450,-171.631729,1.183230,139.782089,1.365181,3.462379,-11.212220,-215.516632,160.324417,-103.002495
283,89656117,-175.682755,-1.884460,141.991241,-0.430728,6.715154,-10.701667,-241.891266,165.729248,-151.918030
284,89672784,179.503891,-4.852298,145.280029,-3.395958,10.761171,-8.890026,-276.791779,168.825928,-202.687134
285,89689451,173.783600,-7.482891,149.483261,-10.420014,14.326562,-3.282242,-315.636902,169.653870,-240.960388
286,89706118,167.052612,-9.596175,154.364578,-19.205107,13.780231,5.641346,-359.810272,170.648956,-264.403595
287,89722785,159.665863,-10.840654,159.488678,-23.092474,6.835150,13.733782,-388.090088,155.612091,-268.448517
288,89739452,153.165512,-10.814146,163.778976,-21.076590,-3.929239,8.437622,-341.227325,97.110268,-232.220337
289,89756119,149.628586,-9.369987,166.207413,-16.090864,-9.843886,-8.297031,-186.391174,-10.031961,-167.225998
290,89772786,150.222244,-8.373599,166.778015,-7.626917,-5.269433,-9.672176,41.131458,-37.437489,-59.024475
291,89789453,153.470474,-9.329791,165.676270,-3.794911,3.256338,-1.340919,184.935211,17.106157,84.873016
292,89806120,157.958054,-10.954853,162.730637,-3.733004,9.007105,3.321474,238.281479,14.641815,198.914337
293,89822787,161.343658,-11.664172,159.323837,0.507232,11.048799,2.590435,163.222122,-32.477028,202.940933
294,89839454,162.560669,-11.196798,156.606903,3.537703,10.763900,2.066620,40.946922,-78.826241,143.430908
295,89856121,161.924759,-10.479739,154.995392,2.175376,11.013996,3.774671,-56.076412,-72.603752,77.523033
296,89872788,160.238129,-10.320889,154.356766,-0.454834,6.371431,4.124108,-107.846748,-23.908375,32.763680
297,89889455,158.859497,-10.709550,154.486984,-1.957659,4.104989,2.651376,-81.018791,21.859545,1.147382
298,89906122,157.945892,-11.294663,154.848236,-0.969621,4.560351,1.013514,-50.403538,37.796295,-6.664096
299,89922789,157.318039,-11.763207,154.822327,-1.223416,3.902221,0.704371,-37.703426,22.737309,12.305091
300,89939456,157.167755,-12.091645,154.109573,-2.108533,2.888487,0.990537,-17.575075,-0.697517,46.403759
301,89956123,157.709015,-12.246091,152.896835,-0.327693,3.432308,0.497436,17.417545,-21.420269,69.435745
302,89972790,159.490021,-12.236986,151.476669,0.382598,3.418009,0.836988,89.069374,-33.583008,77.527191
303,89989457,162.073227,-11.963077,150.085693,-0.399007,3.833385,1.402255,137.775162,-45.073387,71.845039
304,90006124,164.759689,-11.370977,148.751953,-2.060139,4.228904,1.479182,145.280624,-59.112247,65.174088
305,90022791,167.098038,-10.522980,147.431839,-3.313320,5.074617,0.890031,125.539658,-70.960823,63.265842
306,90039458,169.069366,-9.520098,145.974579,-4.124152,5.022183,-0.054076,103.345909,-79.359398,72.020859
307,90056125,171.109131,-8.493374,144.332809,-4.727950,4.283022,-1.240845,107.244911,-80.139893,85.437523
308,90072792,173.484375,-7.441374,142.579010,-4.523472,3.654725,-1.815618,128.205170,-79.238457,95.008186
309,90089459,176.037064,-6.229033,140.910004,-3.401283,3.526132,-1.826913,141.515930,-84.243401,92.572311
310,90106126,178.445084,-4.777082,139.428925,-2.402914,3.837993,-1.285007,136.231735,-94.007431,84.362862
311,90122793,-179.514618,-3.068228,138.189636,-1.914458,4.298769,-0.994393,117.607033,-105.958763,73.422478
312,90139460,-177.744568,-1.138411,137.171066,-1.740985,4.151261,-1.012209,104.235893,-117.040085,64.026146
313,90156127,-175.844086,0.886540,136.403107,-1.657209,2.727548,-1.460816,114.204117,-121.483124,53.003822
314,90172794,-173.554901,2.879481,135.942062,-1.620976,1.932213,-1.924133,138.534760,-119.272026,38.779758
315,90189461,-171.059036,4.850862,135.808136,-1.172593,1.654063,-2.711129,150.567764,-118.911095,23.984169
316,90206128,-168.684357,6.903535,135.955917,-1.185545,1.487097,-3.194766,141.847321,-125.560638,13.181361
317,90222795,-166.608398,9.029720,136.394882,-1.255998,1.318796,-3.406412,121.181831,-132.966080,2.015687
318,90239462,-164.673019,11.118638,137.127258,-1.306448,0.823943,-3.242363,108.711983,-134.917282,-10.624495
319,90256129,-162.668518,13.053645,138.167892,-1.299346,0.387867,-3.146279,107.473083,-131.349457,-25.742962
320,90272796,-160.607590,14.836922,139.530090,-0.964938,0.060570,-3.307662,104.234879,-129.302124,-41.371609
321,90289463,-158.587830,16.498192,141.181915,-1.058318,-0.617847,-3.449962,94.696480,-129.454651,-54.486366
322,90306130,-156.526108,18.021652,143.121582,-1.319702,-1.419863,-3.169232,89.450455,-129.673599,-67.616379
323,90322797,-154.309860,19.358988,145.323685,-1.673601,-2.665359,-3.609143,90.907898,-127.791000,-80.229050
324,90339464,-151.873444,20.473602,147.787338,-1.264335,-3.978317,-3.825970,96.100174,-125.287842,-93.453064
325,90356131,-149.327042,21.323290,150.483292,-0.593748,-4.234467,-3.596175,95.348038,-121.347656,-106.414368
326,90372798,-146.716354,21.889503,153.303238,-0.799346,-3.978092,-2.432479,94.601433,-114.872910,-115.226234
327,90389465,-144.215622,22.136435,156.237488,-0.878443,-4.058999,-2.079582,84.318275,-107.477150,-125.839218
328,90406132,-141.896896,22.131258,159.363922,-0.460910,-3.954215,-1.832685,68.708923,-106.924164,-138.832809
329,90422799,-139.779831,21.935415,162.700180,0.121904,-4.451196,-2.093379,52.186493,-110.801437,-151.058640
330,90439466,-137.685883,21.547487,166.214767,1.007422,-5.470778,-2.287089,47.778694,-114.426315,-162.343353
331,90456133,-135.507019,20.963392,169.873718,1.394147,-6.114244,-1.743466,51.387421,-117.854523,-172.496002
332,90472800,-133.306732,20.183182,173.649628,1.155018,-5.439061,0.093599,52.642132,-121.493004,-181.624329
333,90489467,-131.068481,19.142984,177.299149,1.243328,-3.579077,1.751554,60.845554,-113.591805,-184.480087
334,90506134,-129.127213,17.829674,-179.359818,2.743006,-3.252275,1.729507,53.150871,-97.396286,-182.493561
335,90522801,-127.660202,16.372349,-176.305191,3.932943,-3.382623,1.983544,34.373714,-85.699539,-177.089645
336,90539468,-126.422592,14.916245,-173.548004,4.402047,-3.393084,2.966694,29.898270,-77.230972,-165.468552
337,90556135,-125.290329,13.481663,-171.152527,4.669588,-2.645216,3.673175,32.933895,-65.205101,-151.158142
338,90572802,-124.265755,12.159329,-169.140106,4.773827,-1.524426,4.364232,34.936054,-54.132236,-132.105896
339,90589469,-123.383774,11.031429,-167.414291,5.493719,-0.763764,4.347216,32.359932,-49.273258,-112.474121
340,90606136,-122.750549,10.163740,-165.888733,6.285702,0.279767,3.425728,21.414410,-49.665455,-92.516182
341,90622803,-122.410477,9.615713,-164.608521,6.341164,0.826677,2.726126,7.467870,-48.727219,-68.259575
342,90639470,-122.294746,9.346901,-163.544693,6.233974,1.189041,2.255756,-3.314207,-47.216698,-47.125542
343,90656137,-122.291245,9.269540,-162.668274,5.583413,1.332226,2.033095,-8.040334,-44.044682,-31.462105
344,90672804,-122.336189,9.308399,-161.975662,5.064104,1.454679,1.876122,-9.151173,-38.563011,-19.772665
345,90689471,-122.427307,9.456316,-161.486191,4.832545,1.101403,1.590340,-10.001239,-31.879929,-7.847970
346,90706138,-122.582077,9.748423,-161.184387,4.787078,0.647705,1.170283,-12.052235,-27.128788,5.357751
347,90722805,-122.858292,10.203916,-161.051620,4.652669,0.412501,0.943791,-17.701462,-24.026314,18.920433
348,90739472,-123.212982,10.786246,-161.100891,4.222752,0.072555,1.299872,-20.490913,-19.258741,31.043325
349,90756139,-123.622955,11.440844,-161.333054,3.881082,-0.092542,1.429921,-21.664433,-12.868604,40.474545
350,90772806,-124.110687,12.147130,-161.827835,3.887911,-0.282578,1.190310,-22.946646,-2.128567,51.545868
351,90789473,-124.717155,12.919959,-162.674789,3.984646,-0.475251,0.972789,-25.110931,12.074847,66.451744
352,90806140,-125.503510,13.758224,-163.869003,4.082209,-0.797717,0.920665,-30.402384,25.464581,81.402176
353,90822807,-126.474174,14.613535,-165.390625,4.189603,-1.015414,1.328918,-35.613678,38.822514,93.695396
354,90839474,-127.555489,15.424731,-167.267181,4.048289,-1.175924,1.889460,-35.447475,54.894711,104.488258
355,90856141,-128.790878,16.180277,-169.501358,4.052968,-1.326409,2.101858,-37.362587,70.750046,115.509308
356,90872808,-130.282791,16.906078,-172.014786,4.283314,-1.230413,1.944958,-46.312496,81.136108,125.762238
357,90889475,-132.041641,17.649971,-174.753387,4.323576,-1.389513,1.660309,-56.459572,86.117340,137.025497
358,90906142,-134.047073,18.405201,-177.704147,3.955476,-1.799069,1.753395,-65.258102,89.486603,148.183090
359,90922809,-136.209457,19.095207,179.164413,3.609159,-2.146671,1.650317,-69.067017,93.559868,155.442917
360,90939476,-138.497162,19.670580,175.903641,3.476808,-2.416231,1.525159,-72.043289,97.022766,159.292068
361,90956143,-140.901703,20.046467,172.568146,3.198431,-2.701313,1.354136,-75.999062,101.926331,158.298325
362,90972810,-143.282730,20.140991,169.251511,3.091773,-3.256830,1.288406,-74.202324,107.725632,151.098389
363,90989477,-145.501053,19.907614,166.043945,2.995855,-3.792393,0.424167,-66.910973,114.041359,139.021912
364,91006144,-147.616669,19.331293,162.937469,3.047287,-4.057488,-1.075378,-64.068192,122.982162,127.617523
365,91022811,-149.652054,18.422810,159.858414,3.496929,-4.438165,-2.580736,-62.064884,134.902130,121.064476
366,91039478,-151.866440,17.315117,156.876114,4.435288,-5.071580,-4.069689,-77.667862,138.560608,116.319054
367,91056145,-154.432938,16.091982,154.030533,4.774068,-4.819675,-3.071599,-104.622452,136.719208,112.936760
368,91072812,-157.101135,14.651485,151.395798,4.095659,-4.761006,-1.143794,-117.889801,138.766861,103.712212
369,91089479,-159.499603,12.846988,149.048706,3.049384,-5.090085,-0.589565,-110.143990,148.565079,87.252632
370,91106146,-161.211899,10.580137,147.035019,1.882633,-5.623851,-1.350774,-77.922325,165.257935,65.883232
371,91122813,-162.481644,7.994234,145.552490,2.348759,-5.879281,-4.759058,-61.553890,172.180817,35.267666
372,91139480,-164.263412,5.454007,144.662735,4.039860,-4.516126,-7.769746,-100.376984,158.619141,7.376100
373,91156147,-166.737274,3.052392,144.233124,3.169720,-3.419464,-9.127849,-146.237991,143.361786,-11.004961
374,91172814,-169.607010,0.648179,144.294189,2.583973,-2.124241,-9.612494,-172.020676,137.864151,-32.961658
375,91189481,-172.460693,-1.997012,145.027817,2.507088,-0.496475,-11.480857,-170.413727,147.335754,-68.032104
376,91206148,-175.555939,-4.868650,146.801544,3.999516,4.041095,-13.856110,-179.032272,157.680725,-123.465889
377,91222815,-179.367706,-7.672514,149.695435,2.123975,9.844028,-13.377712,-209.388474,157.820160,-179.710938
378,91239482,174.986588,-9.838064,153.582764,-5.252862,15.374256,-5.692531,-302.809570,136.048019,-225.262100
379,91256149,166.824860,-10.965566,158.274307,-13.293941,15.147507,9.844088,-438.329224,107.991470,-262.657715
380,91272816,157.042557,-11.351953,163.142029,-21.746096,3.556612,17.784542,-529.800171,108.371803,-265.262939
381,91289483,147.954239,-10.813144,166.913956,-21.522753,-8.360220,9.773285,-501.334259,71.312622,-211.882202
382,91306150,142.735336,-9.423353,168.557907,-17.192263,-14.044849,-4.888126,-295.517883,-16.029655,-127.122406
383,91322817,142.255692,-8.893180,168.451736,-10.690132,-9.424112,-7.389337,-29.561329,-31.728859,-14.175016
384,91339484,145.363770,-10.076197,166.761169,-6.614064,3.998605,0.532104,169.968719,-4.463001,122.859589
385,91356151,149.025726,-11.405015,163.736435,-3.633130,12.349829,4.325767,186.056290,-32.285309,193.271255
386,91372818,150.797119,-11.935518,160.610367,2.071456,11.996474,4.470789,68.549667,-67.233742,175.075287
387,91389485,150.901810,-11.973268,158.586472,-0.295634,10.704993,7.313684,-18.629309,-58.570766,105.046532
388,91406152,149.228394,-12.054254,158.132950,1.195880,8.907174,5.786958,-105.814224,-11.753408,25.683088
389,91422819,146.946365,-12.139297,158.656479,-1.235793,4.542518,1.440621,-130.076767,17.884733,-23.188757
390,91439486,145.665375,-12.248811,159.632263,-0.170220,3.779675,0.236143,-64.227203,34.527187,-43.777878
391,91456153,145.519424,-12.376142,160.204834,-0.049848,3.455859,-0.181343,-1.166945,22.581732,-23.182398
392,91472820,146.265976,-12.439210,160.155350,-0.984076,2.941028,-0.476855,44.422192,-1.179793,4.712148
393,91489487,147.445465,-12.361751,159.695068,-1.197006,3.527637,0.602312,65.106377,-21.326862,20.236479
394,91506154,148.633133,-12.247902,159.045395,-1.058676,4.053198,1.737034,63.221825,-28.646849,28.881704
395,91522821,149.545761,-12.022495,158.396515,-0.934146,4.312784,1.297492,46.846375,-33.849373,25.897511
396,91539488,150.365387,-11.726793,157.783279,-2.544921,2.937814,0.893225,41.880474,-36.079681,22.474857
397,91556155,151.411560,-11.525954,157.090118,-4.057955,1.875603,0.487959,54.664520,-33.043625,29.911465
398,91572822,152.713013,-11.468986,156.283157,-2.408916,3.390393,-0.841026,68.710358,-27.948145,40.497757
399,91589489,154.492111,-11.568989,155.277420,-1.338819,3.630345,-1.136353,94.966927,-23.617849,55.816864
400,91606156,156.852341,-11.758078,154.122147,-2.417741,2.950403,-0.122266,127.872208,-20.334738,66.718231
401,91622823,159.492172,-11.839027,152.879364,-3.286936,3.054312,0.715047,143.412811,-25.340265,69.747734
402,91639490,162.080383,-11.719361,151.506119,-3.970095,3.647192,0.751053,138.741272,-36.039898,73.998375
403,91656157,164.493301,-11.348650,149.947037,-3.842692,4.219705,-0.373305,126.336067,-50.381523,81.577271
404,91672824,166.777313,-10.786647,148.190247,-3.235038,3.946716,-1.556612,117.068840,-61.053558,92.037254
405,91689491,169.007599,-10.087518,146.317139,-2.892901,3.553638,-1.567013,113.719009,-66.925415,99.462517
406,91706158,171.205002,-9.261097,144.453781,-2.623367,3.324361,-1.248325,113.316353,-70.515266,100.244492
407,91722825,173.436859,-8.295270,142.690094,-2.494910,3.248528,-1.083680,118.020493,-74.140572,96.096756
408,91739492,175.748016,-7.133098,141.105637,-2.620800,2.966180,-1.613260,126.164688,-81.038269,87.414192
409,91756159,178.162796,-5.744032,139.834625,-1.743437,2.360111,-1.988634,136.591370,-89.997101,71.439857
410,91772826,-179.272263,-4.206018,138.889114,-1.110825,2.164718,-1.731450,149.232025,-95.574768,55.815392
411,91789493,-176.498108,-2.598687,138.182724,-1.451305,1.741434,-1.891763,164.187469,-97.567863,46.044796
412,91806160,-173.585480,-0.918758,137.735489,-1.410471,1.323514,-1.965419,174.186386,-100.859688,35.636005
413,91822827,-170.591782,0.820822,137.580658,-0.480735,0.711563,-1.970879,179.864456,-104.863586,23.774921
414,91839494,-167.678024,2.568666,137.731934,-0.013879,0.459589,-2.043931,174.807449,-107.461113,11.063945
415,91856161,-165.003464,4.307737,138.121017,-0.076298,0.323174,-2.164430,159.324722,-109.653076,2.205807
416,91872828,-162.681625,6.064514,138.685852,-0.379061,-0.309706,-2.625286,136.499954,-113.387421,-2.876087
417,91889495,-160.600555,7.860293,139.455887,-0.359219,-1.026269,-2.541081,119.517326,-119.455093,-9.380766
418,91906162,-158.543030,9.607581,140.459625,-0.237684,-1.842414,-2.570874,114.557457,-121.765625,-18.984556
419,91922829,-156.382599,11.187987,141.693710,0.299048,-2.230869,-1.924102,116.511497,-118.235764,-30.710089
420,91939496,-154.233734,12.540192,143.112274,1.030453,-1.887183,-1.763788,111.683800,-111.241409,-41.572292
421,91956163,-152.241455,13.685163,144.607590,1.020685,-1.792214,-1.820015,99.434700,-103.411903,-46.867039
422,91972830,-150.386765,14.600760,146.201691,0.975310,-2.371632,-2.198683,88.165054,-95.433838,-54.776962
423,91989497,-148.703827,15.383514,148.026520,1.292920,-3.452281,-2.962150,72.907875,-96.809044,-67.149200
424,92006164,-147.144669,16.023088,150.116394,2.010078,-4.772232,-2.831683,59.864445,-99.329712,-81.690338
425,92022831,-145.911819,16.507511,152.329483,1.321389,-5.208727,-2.566589,37.033024,-97.250496,-90.082596
426,92039498,-144.989731,16.724026,154.552368,1.403692,-2.180336,-0.020439,17.438883,-85.878517,-97.680161
427,92056165,-144.337631,16.533136,156.490295,0.851045,-0.716452,1.251402,6.106646,-57.793224,-97.295074
428,92072832,-143.777283,16.045015,158.182709,1.618875,-1.149387,0.647268,5.394728,-36.198223,-95.885445
429,92089499,-143.069397,15.580743,159.863037,1.880116,-2.990414,0.212662,15.257410,-38.130398,-94.284775
430,92106166,-142.032928,15.210512,161.697327,2.089219,-4.695562,0.635123,33.221783,-49.575325,-97.533890
431,92122833,-140.580261,14.839404,163.751770,2.256246,-4.191098,1.511729,55.450104,-59.733406,-106.628799
432,92139500,-138.877304,14.355340,165.734039,2.978765,-2.169648,1.580676,72.443687,-54.920929,-106.382088
433,92156167,-137.411499,13.810702,167.419006,3.847722,-0.509949,1.207374,63.592373,-43.770641,-94.634544
434,92172834,-136.307083,13.331483,168.852646,3.661328,-0.867996,1.818747,46.327320,-38.870438,-80.465569
435,92189501,-135.317932,12.932340,170.282913,4.072321,-1.323834,2.310398,40.100780,-43.750896,-76.415833
436,92206168,-134.167038,12.623028,171.755402,4.043929,-1.058268,2.546731,49.760914,-50.801628,-73.630814
437,92222835,-132.860947,12.433506,173.206650,4.446563,-0.330765,1.937608,59.721111,-56.479332,-66.574989
438,92239502,-131.623291,12.429852,174.426758,4.161797,0.311549,1.691516,58.748150,-55.437378,-48.025494
439,92256169,-130.481247,12.538349,175.377670,3.684198,0.822356,1.689789,56.437756,-48.941273,-31.480684
440,92272836,-129.447021,12.701943,176.087204,3.298236,1.368323,1.157430,53.001842,-40.806820,-18.971624
441,92289503,-128.581024,12.907223,176.643768,3.255090,1.278971,0.397850,44.811859,-35.713940,-10.742081
442,92306170,-128.083939,13.197497,177.169403,3.470435,1.273433,-0.236530,22.953905,-37.557346,-5.208096
443,92322837,-127.931999,13.573423,177.651398,3.303784,1.200684,-0.191996,2.677867,-38.712555,0.629941
444,92339504,-127.939621,13.960084,178.009705,3.039828,0.909657,-0.065384,-5.317090,-33.383434,5.641892
445,92356171,-128.019974,14.285416,178.243973,2.904312,0.474981,-0.077350,-7.995049,-25.411667,7.174103
446,92372838,-128.201874,14.535059,178.402512,2.824415,-0.039961,-0.165769,-13.024249,-19.146748,6.275937
447,92389505,-128.549072,14.737453,178.502014,2.761927,-0.532154,-0.429270,-22.084284,-14.719654,6.110302
448,92406172,-129.017014,14.923242,178.491196,2.412565,-1.046984,-0.068207,-27.654196,-9.144032,9.257541
449,92422839,-129.444412,15.076910,178.330597,2.047613,-1.578948,0.257860,-22.893740,-1.270022,13.203603
450,92439506,-129.741165,15.199383,177.985352,1.773066,-1.785122,0.620910,-12.142441,8.077448,18.581108
451,92456173,-129.925262,15.311298,177.396378,1.701637,-1.946529,0.764329,-1.494942,19.229019,27.168833
452,92472840,-130.137375,15.451647,176.563705,2.185433,-2.171277,0.428537,0.775808,28.822664,37.605186
453,92489507,-130.448441,15.655861,175.508865,2.718657,-2.384015,0.181214,-1.442680,35.937141,48.948723
454,92506174,-130.811310,15.891012,174.217087,3.241543,-2.286923,0.118908,-0.454429,44.776321,59.449940
455,92522841,-131.147278,16.112167,172.642685,3.485016,-1.695089,0.354293,6.130902,57.208035,69.737129
456,92539508,-131.496658,16.284492,170.766022,3.674309,-1.374067,0.582334,10.697086,71.736031,79.329735
457,92556175,-132.027374,16.452000,168.674850,4.205332,-1.756017,0.612016,3.766889,80.463188,87.843231
458,92572842,-132.804291,16.670010,166.472977,4.862610,-2.415968,0.616179,-8.702568,82.028191,95.236221
459,92589509,-133.779480,16.949684,164.130981,5.348866,-2.713972,1.054475,-17.614151,83.771111,104.617691
460,92606176,-134.803162,17.228832,161.575821,5.361265,-2.407227,1.840223,-16.107296,90.568901,114.479256
461,92622843,-135.828308,17.455580,158.852890,4.584295,-2.288280,2.789807,-12.547526,97.359970,120.601471
462,92639510,-137.011124,17.627527,156.079605,4.876411,-2.955489,2.382916,-20.548000,99.276436,122.203918
463,92656177,-138.507751,17.851091,153.250656,4.974306,-4.397963,2.024001,-37.806068,96.127167,128.858658
464,92672844,-140.284805,18.153250,150.289993,4.250558,-6.041975,2.264606,-51.440582,93.573761,140.220642
465,92689511,-141.981644,18.353939,147.244919,3.467114,-6.519202,2.676241,-44.300255,96.892776,142.806717
466,92706178,-143.287460,18.223154,144.171829,3.303284,-5.856903,3.104847,-20.212093,109.873940,134.535690
467,92722845,-144.141174,17.643698,141.061127,3.750070,-6.082664,2.483802,6.521457,130.500916,122.724144
468,92739512,-145.109299,16.715639,138.209457,4.401219,-7.157661,0.253131,-7.274396,137.423660,101.212646
469,92756179,-146.726761,15.575686,135.840210,5.344329,-7.606521,-2.222986,-57.235851,130.561646,74.928612
470,92772846,-149.011749,14.232878,134.128677,6.801420,-6.747859,-3.695912,-110.402267,118.417397,41.349361
471,92789513,-151.529190,12.586369,133.043381,7.636503,-5.916420,-4.313766,-135.660095,114.622009,6.174788
472,92806180,-153.783325,10.456736,132.775421,9.023468,-4.144600,-6.063179,-131.748383,118.167709,-44.542259
473,92822847,-155.277451,7.801927,133.480515,10.834535,-1.853069,-9.122290,-96.070053,123.276718,-106.055252
474,92839514,-156.295609,4.766969,135.400330,8.556437,2.058008,-11.426292,-73.403694,116.536743,-178.953537
475,92856181,-157.796661,1.793177,138.667267,2.472265,9.515221,-10.231045,-100.958527,85.372124,-249.625900
476,92872848,-160.484207,-0.736648,143.261917,-6.673883,16.614452,-6.211744,-163.403870,41.040539,-311.493774
477,92889515,-164.378815,-2.958572,148.904526,-17.729660,20.050938,-0.922897,-222.265259,22.281002,-362.697906
478,92906182,-168.579391,-5.091166,155.063843,-25.925688,15.059030,3.136633,-225.546585,35.504410,-388.210541
479,92922849,-171.978851,-6.918013,160.800797,-24.278219,3.134306,2.551715,-167.503159,47.521999,-355.751587
480,92939516,-174.608582,-8.240816,164.888779,-17.508768,-3.755340,0.579528,-125.096176,47.752796,-250.552734
481,92956183,-177.158386,-8.898295,166.457321,-10.578118,-2.468295,-3.141088,-138.700668,30.004059,-95.460136
482,92972850,-179.577057,-9.369143,165.673218,-5.586391,0.941333,-2.862506,-152.335480,26.893080,45.828327
483,92989517,179.342758,-9.735188,163.645126,-5.179440,2.171429,-0.281064,-84.751480,19.039633,120.244446
484,93006184,179.033600,-9.490421,162.074081,-3.078587,5.954434,1.863074,-34.042912,-18.679844,92.922050
485,93022851,178.601456,-8.843204,161.370041,-1.328138,7.688189,1.240634,-32.406921,-42.368450,41.090103
486,93039518,177.950134,-8.327265,161.252487,-2.874064,6.056163,1.344291,-39.875114,-33.838581,6.239973
487,93056185,177.641968,-8.395213,161.391006,-4.180183,1.944031,0.143905,-17.020262,1.699706,-7.860700
488,93072852,177.781677,-8.932879,161.677475,-2.090896,1.735984,-0.230613,11.231494,30.218540,-15.490644
489,93089519,177.769684,-9.552271,161.830124,-0.079825,3.251567,0.521849,1.013173,34.791309,-7.390769
490,93106186,177.423721,-9.961172,161.631927,0.054232,3.098785,0.700309,-22.509886,21.326302,12.935714
491,93122853,177.238174,-10.061669,161.237000,-0.441178,1.878610,0.209373,-14.984727,2.242238,23.786356
492,93139520,177.536377,-10.014803,160.830429,-0.605598,2.185065,1.256375,13.905166,-6.598285,24.067596
493,93156187,177.947983,-9.964694,160.398575,-0.652279,3.481445,1.669399,20.468746,-6.704843,25.579409
494,93172854,178.077652,-9.875671,159.893585,-0.856887,3.685679,1.293586,2.829131,-9.069410,29.842077
495,93189521,177.931625,-9.738774,159.294113,-1.425970,3.099718,1.349459,-14.617252,-12.139440,35.330101
496,93206188,177.861298,-9.626226,158.519623,-1.972713,2.198017,1.522614,-11.762217,-11.127260,45.726109
497,93222855,178.018814,-9.481253,157.501892,-1.713712,2.200449,1.294306,-0.412396,-13.557149,60.063057
498,93239522,178.299820,-9.203459,156.201202,-1.472091,2.650019,0.885122,4.462453,-21.832779,76.631546
499,93256189,178.607239,-8.725603,154.626251,-1.815323,3.058225,-0.011290,3.991281,-33.880985,92.726151
500,93272856,178.817215,-8.017054,152.836411,-2.390203,3.555865,-0.474422,-2.766597,-47.590874,105.465065
501,93289523,178.863144,-7.103454,150.869019,-2.976400,4.043240,-0.633723,-12.503405,-59.874695,116.078247
502,93306190,178.828400,-6.063300,148.752747,-3.309931,4.127704,-0.398633,-16.371271,-67.639854,125.053894
503,93322857,178.935196,-4.987066,146.497559,-3.482275,3.709207,-0.164523,-6.351256,-69.895119,133.590454
504,93339524,179.325836,-3.945822,144.172729,-3.364908,3.594615,-0.302506,12.840770,-67.285721,138.297043
505,93356191,179.966232,-2.930676,141.821213,-3.316855,3.276561,-1.165818,30.221220,-64.489380,140.654465
506,93372858,-179.265579,-1.850635,139.566528,-2.902459,2.528218,-1.830466,40.705151,-66.689621,135.756638
507,93389525,-178.509201,-0.645434,137.554047,-2.117128,2.828799,-1.642479,43.007275,-72.672356,122.296341
508,93406192,-177.841919,0.635924,135.708725,-1.200489,3.585890,-0.906083,40.281391,-76.036873,113.308464
509,93422859,-177.128128,1.879947,133.910507,-1.429093,3.024268,-0.937027,45.448940,-72.557243,111.236153
510,93439526,-176.276779,3.069710,132.269318,-0.740511,2.060907,-1.439487,55.584663,-68.332504,102.518303
511,93456193,-175.330978,4.207733,130.826523,-0.446746,1.437061,-2.238313,62.492222,-64.501991,91.354218
512,93472860,-174.384171,5.379056,129.674088,-0.032452,1.273704,-2.480102,62.835938,-66.545311,75.122475
513,93489527,-173.494629,6.617157,128.745407,-0.138228,1.363299,-2.570511,59.445118,-70.744362,63.150127
514,93506194,-172.603073,7.859871,128.001328,-0.315174,0.610389,-2.991238,59.368763,-71.379051,53.184029
515,93522861,-171.646683,9.007038,127.450188,0.002160,-0.390516,-3.661664,62.483643,-66.421524,42.036831
516,93539528,-170.508652,9.946317,127.112526,-0.218726,-1.152238,-3.654878,71.866539,-55.296169,28.681480
517,93556195,-169.101181,10.663597,127.060165,0.343946,-1.140428,-2.703005,85.257759,-44.528469,10.863773
518,93572862,-167.558823,11.230922,127.263557,0.672096,-0.841587,-1.575511,90.472794,-38.475151,-4.643062
519,93589529,-165.974747,11.760268,127.736557,0.424120,-1.544368,-1.557755,89.635551,-39.996693,-19.601130
520,93606196,-164.453049,12.332863,128.567352,0.936865,-2.318919,-2.248714,81.143936,-48.369530,-38.164711
521,93622863,-162.855194,12.960714,129.694260,1.132532,-2.698931,-2.572839,81.311859,-57.419735,-52.499428
522,93639530,-161.000275,13.545923,131.017624,0.372624,-2.694742,-2.011942,93.333855,-60.057060,-62.376976
523,93656197,-158.913864,14.036590,132.537399,0.471328,-2.032637,-1.391500,103.687248,-60.706577,-72.901497
524,93672864,-156.825165,14.406467,134.210388,0.558608,-1.521409,-1.140091,100.900497,-59.906769,-81.567398
525,93689531,-154.844193,14.677510,135.988297,0.451404,-1.499184,-1.266250,92.312759,-59.800194,-87.345871
526,93706198,-152.777695,14.830619,137.842438,-0.024247,-2.405652,-1.296600,95.895264,-58.412632,-92.277794
527,93722865,-150.443436,14.841910,139.841263,-0.144350,-3.571905,-1.375538,109.581345,-58.406212,-101.459763
528,93739532,-147.962112,14.704177,142.029221,0.757317,-3.682197,-0.793131,115.633041,-60.580471,-113.063171
529,93756199,-145.606308,14.400376,144.316223,1.574489,-2.049607,0.138606,107.098816,-60.189636,-120.892311
530,93772866,-143.511108,13.974897,146.551163,1.485659,-1.036634,0.814918,93.075531,-57.270271,-120.512459
531,93789533,-141.560150,13.466686,148.691223,1.272760,-1.698323,0.714559,86.832344,-54.353992,-117.349861
532,93806200,-139.547897,12.915180,150.818573,1.475497,-2.785769,0.221099,91.839172,-56.083881,-116.783508
533,93822867,-137.503357,12.327868,152.977997,1.405663,-3.441035,0.173788,94.589745,-60.010609,-117.865326
534,93839534,-135.491119,11.683403,155.160461,1.699448,-2.754235,1.263962,93.722549,-62.798317,-119.316498
535,93856201,-133.607101,10.950148,157.251801,2.400296,-1.310809,1.943027,88.645676,-59.495483,-117.463699
536,93872868,-131.863388,10.175860,159.130539,2.979867,-0.599317,2.005192,84.188843,-52.536995,-109.118408
537,93889535,-130.227707,9.420272,160.777527,3.497206,-0.749463,1.320971,81.558754,-46.338936,-97.934731
538,93906202,-128.725174,8.745378,162.279419,3.895813,-1.218037,0.466633,76.162682,-45.607254,-87.630585
539,93922869,-127.427155,8.160835,163.733444,4.189977,-1.098198,0.582867,65.294540,-48.962337,-80.629868
540,93939536,-126.297165,7.616492,165.161530,4.066023,-0.336209,1.271913,56.279419,-50.973164,-76.852829
541,93956203,-125.345833,7.074813,166.517334,3.779669,0.301733,1.570880,46.919228,-49.057076,-73.381332
542,93972870,-124.665955,6.565071,167.767303,3.760699,0.606745,1.336579,32.130142,-46.106602,-67.581062
543,93989537,-124.235817,6.149485,168.864807,3.518996,0.322465,1.277948,18.761539,-42.516041,-57.397781
544,94006204,-123.922188,5.877501,169.769897,3.197684,-0.304217,1.384444,13.372755,-38.241299,-43.594948
545,94022871,-123.672966,5.758538,170.496658,2.997674,-0.699679,1.526755,10.780488,-34.730667,-29.880814
546,94039538,-123.521965,5.781896,171.054443,2.797901,-0.675019,1.655169,5.941475,-31.161858,-17.077999
547,94056205,-123.467842,5.926892,171.448807,2.715728,-0.591118,1.483934,1.080046,-27.083542,-5.558778
548,94072872,-123.497688,6.179790,171.684769,2.725296,-0.209577,1.233188,-3.037698,-22.763357,5.064262
549,94089539,-123.608459,6.519310,171.761215,2.683010,-0.149360,0.891345,-6.907208,-17.706081,14.633082
550,94106206,-123.841263,6.924457,171.735306,2.838480,-0.417072,0.438709,-13.539514,-14.861325,21.247364
551,94122873,-124.178619,7.384192,171.641815,2.613947,-0.530146,0.422951,-19.296244,-13.462363,26.149393
552,94139540,-124.575081,7.851244,171.467209,2.220147,-0.574738,0.633227,-22.151573,-9.895350,29.165089
553,94156207,-125.011124,8.292787,171.167923,1.919931,-0.615845,0.709749,-23.394350,-3.163852,32.069458
554,94172874,-125.554901,8.715067,170.730087,1.930132,-0.510092,0.538321,-28.494545,3.930650,35.859898
555,94189541,-126.340073,9.170225,170.157028,2.069967,-0.627239,0.343726,-41.516350,8.825075,42.218155
556,94206208,-127.369942,9.680427,169.441513,1.944290,-0.768839,0.859407,-54.512684,12.886626,50.065239
557,94222875,-128.468719,10.202384,168.548431,1.988348,-0.950066,1.291316,-56.425236,19.753866,57.311203
558,94239542,-129.530243,10.700967,167.460342,2.314073,-0.995282,1.313151,-51.597069,28.428926,63.818466
559,94256209,-130.545532,11.184104,166.203735,2.646804,-0.742000,1.200462,-46.353451,35.391518,69.980568
560,94272876,-131.622101,11.688721,164.841690,2.989637,-0.464261,0.947125,-48.136539,37.843983,75.625656
561,94289543,-132.840057,12.243254,163.405441,3.031578,-0.559627,1.169394,-54.953327,37.425022,81.462051
562,94306210,-134.233047,12.827600,161.871445,2.901276,-0.959698,1.528268,-63.342186,38.351883,87.469025
563,94322877,-135.820389,13.424539,160.219254,2.941638,-1.169885,1.955122,-72.466957,40.266922,93.772964
564,94339544,-137.598145,13.992581,158.423645,3.063185,-1.026366,2.244410,-80.868095,44.338043,99.719078
565,94356211,-139.467529,14.508815,156.510208,3.330891,-1.282169,1.980224,-83.631248,47.853508,104.057602
566,94372878,-141.345566,14.984040,154.537872,3.494910,-2.147061,1.275990,-82.287849,48.345646,106.523682
567,94389545,-143.235443,15.437913,152.578308,3.437621,-2.892530,0.854623,-82.271568,45.236435,106.578766
568,94406212,-145.218246,15.852084,150.634308,2.785494,-3.053499,0.949620,-87.239067,42.883617,105.818527
569,94422879,-147.448563,16.159649,148.656738,2.463089,-3.079363,0.800824,-100.824562,45.259842,105.321732
570,94439546,-149.865906,16.235830,146.564972,2.602935,-2.806777,0.975322,-109.750374,56.181011,105.480797
571,94456213,-152.221588,15.971824,144.318008,2.627064,-2.788017,1.037531,-103.660446,73.965103,105.837219
572,94472880,-154.341080,15.335935,142.036469,2.552771,-3.488722,0.140353,-89.947174,90.738678,100.758438
573,94489547,-156.366257,14.457584,139.975815,2.791857,-4.059576,-1.226795,-89.441856,95.123878,86.796539
574,94506214,-158.490677,13.462059,138.329407,2.915303,-4.398853,-2.499642,-103.353371,89.357117,65.770821
575,94522881,-160.757935,12.386193,137.142075,3.016561,-4.347039,-3.286087,-119.821503,82.099937,42.792667
576,94539548,-163.028168,11.207473,136.354385,2.384506,-4.320119,-4.010645,-126.273163,79.018188,22.175266
577,94556215,-165.241333,9.904584,135.927597,1.654661,-3.958253,-4.752557,-127.822868,79.499557,3.025876
578,94572882,-167.349762,8.468662,135.828888,1.052327,-3.414661,-5.654078,-125.284943,82.515060,-14.545259
579,94589549,-169.391174,6.849413,135.996338,0.912594,-3.005115,-6.313282,-123.549652,90.582985,-29.149647
580,94606216,-171.423752,4.931210,136.386398,1.002777,-1.945798,-6.634430,-124.081261,107.036491,-41.939148
581,94622883,-173.570511,2.735565,137.068375,1.800331,0.123825,-7.122834,-131.263153,122.713120,-57.490311
582,94639550,-175.833038,0.353617,138.116669,2.946595,2.429753,-8.172860,-137.163666,133.932312,-75.612274
583,94656217,-178.174973,-2.173323,139.668716,3.526112,4.754686,-8.529671,-138.743378,143.970062,-100.713623
584,94672884,179.308716,-4.788814,141.874023,1.385525,7.589648,-6.330397,-142.635178,153.031876,-133.425873
585,94689551,176.335358,-7.324205,144.848145,-5.597262,9.047523,-0.831563,-159.233841,156.157700,-171.355988
586,94706218,172.662033,-9.532403,149.002319,-11.689169,8.456215,4.928010,-183.474884,152.887878,-232.544907
587,94722885,168.189926,-11.092060,154.100800,-13.132075,6.362507,7.076656,-213.110764,139.686279,-281.046631
588,94739552,163.396530,-11.628005,159.043030,-13.383999,3.292448,4.190317,-228.761185,99.895119,-273.768860
589,94756219,159.804626,-11.224698,162.500565,-13.246275,-3.896693,-0.213312,-174.096832,38.592224,-200.388199
590,94772886,159.128448,-10.962267,163.887711,-11.221946,-7.712514,-3.239861,-24.312365,11.247618,-81.798874
591,94789553,160.303619,-11.446820,163.525192,-6.944927,-3.169655,-3.281899,66.508858,17.211390,30.294922
592,94806220,162.389679,-12.239238,161.693008,-4.189255,2.723367,-1.336060,102.810722,7.964282,117.341888
593,94822887,164.662155,-12.658141,159.142639,-1.865961,6.545447,1.420315,103.563614,-20.948605,150.611252
594,94839554,166.053574,-12.496206,156.888260,0.754748,8.329633,1.395218,54.252094,-45.445492,125.466354
595,94856221,166.538116,-12.014786,155.323700,0.962213,8.025769,2.619708,9.384395,-52.473721,82.472046
596,94872888,166.284378,-11.729007,154.666595,0.158190,6.719937,2.959183,-23.083107,-28.414171,33.666348
597,94889555,165.458191,-11.799907,154.782547,-0.531201,5.041367,2.620181,-47.893242,3.100410,-5.371270
598,94906222,164.610306,-12.233068,155.281998,-0.858890,4.130355,1.745712,-44.367165,29.986973,-21.411160
599,94922889,163.891830,-12.809953,155.752686,0.430937,4.670067,1.138177,-36.715847,38.103676,-16.945328
600,94939556,163.348343,-13.349883,155.805862,-0.082001,3.581309,1.212921,-31.609871,29.263494,6.346747
601,94956223,163.540268,-13.722853,155.422989,-1.044648,1.644769,1.219770,6.416842,12.388694,27.981552
602,94972890,164.489639,-13.730007,154.764618,-1.378846,1.464059,1.390966,47.868317,-12.854059,37.205299
603,94989557,165.765259,-13.327348,153.783493,-1.647557,2.252964,1.007627,63.042717,-40.741791,49.306099
604,95006224,167.230560,-12.665408,152.506195,-1.486612,2.757969,1.146539,70.959030,-58.757496,63.533054
605,95022891,168.965820,-11.967062,151.097198,-1.541929,2.970804,1.027411,86.357475,-60.740990,72.371910
606,95039558,170.786057,-11.246667,149.740265,-1.627112,3.183811,0.687625,93.108894,-59.281528,71.104256
607,95056225,172.406647,-10.435354,148.513412,-1.791493,3.261081,0.544208,83.668533,-61.438400,64.601067
608,95072892,173.656311,-9.508493,147.379776,-1.920230,3.511569,0.181430,63.483582,-66.049614,59.935669
609,95089559,174.597977,-8.518359,146.228500,-1.823531,3.164185,-0.707278,45.963779,-68.803040,61.975021
610,95106226,175.477127,-7.530885,144.973923,-2.023234,2.424662,-1.192993,42.525257,-68.205185,69.325119
611,95122893,176.431992,-6.543489,143.651947,-1.972363,2.141524,-1.492473,47.858055,-67.386009,74.531761
612,95139560,177.449493,-5.492554,142.326401,-1.992496,2.260214,-1.469935,52.994640,-69.928185,75.808563
613,95156227,178.387482,-4.299972,141.067810,-1.898846,2.345421,-1.812081,50.115658,-76.987206,72.782570
614,95172894,179.121704,-2.985271,139.910675,-1.219899,2.247087,-1.817577,39.923672,-83.119659,67.744614
615,95189561,179.702759,-1.682827,138.834167,-1.163630,2.118259,-1.747237,32.515236,-81.559097,63.919956
616,95206228,-179.699982,-0.456019,137.821777,-1.239269,1.958554,-1.766245,34.984028,-76.366028,60.923019
617,95222895,-178.898560,0.682985,136.880585,-1.492114,1.747140,-2.083996,48.477119,-70.408119,57.492359
618,95239562,-177.889236,1.793298,136.074783,-1.181011,1.218438,-2.788830,61.882183,-68.006340,50.371918
619,95256229,-176.777557,2.894552,135.418732,-0.790325,0.918530,-2.903321,68.586205,-66.944946,42.553631
620,95272896,-175.647736,3.957355,134.897339,-0.753092,0.784020,-2.931924,69.934052,-64.340263,35.564137
621,95289563,-174.518829,4.993608,134.519424,-1.183773,0.928344,-3.450861,69.777908,-62.785755,28.046808
622,95306230,-173.294266,6.043760,134.293228,-2.193210,0.819129,-4.422125,75.052460,-63.997986,20.314215
623,95322897,-171.844315,7.116627,134.281143,-2.331109,0.633797,-4.627879,87.350235,-66.521202,9.236252
624,95339564,-170.155014,8.168271,134.487579,-1.118761,0.315775,-3.036126,99.977272,-67.028313,-2.052899
625,95356231,-168.304214,9.063248,134.856079,-0.485393,-0.217072,-2.429057,108.001633,-59.625217,-11.240612
626,95372898,-166.381470,9.806933,135.383087,-0.183862,-0.836415,-2.085771,110.446945,-53.159439,-20.453072
627,95389565,-164.483902,10.494365,136.106491,-0.029584,-0.832797,-1.729937,106.469902,-53.451237,-30.765345
628,95406232,-162.680252,11.223123,137.063614,-0.014670,-0.442523,-1.530264,97.665298,-60.665836,-41.527813
629,95422899,-160.988113,12.013179,138.250778,0.443538,-0.280525,-1.403286,87.449890,-69.573952,-51.295815
630,95439566,-159.128174,12.789763,139.616379,0.228310,-0.771206,-0.865765,94.266144,-73.871262,-59.117035
631,95456233,-156.863281,13.414232,141.201752,0.233860,-1.768808,-0.625151,114.594604,-72.228615,-71.646263
632,95472900,-154.246521,13.875082,143.079330,0.645489,-2.607789,-1.239131,130.690369,-73.248535,-88.001671
633,95489567,-151.621124,14.189464,145.268585,1.332791,-2.053782,-0.751325,125.931915,-77.548775,-104.671036
634,95506234,-149.422745,14.354135,147.633865,1.005258,-0.847039,0.048413,97.175232,-79.042679,-114.647484
635,95522901,-147.708069,14.331346,150.018478,0.255350,-0.342982,0.913813,67.704483,-73.879517,-118.755501
636,95539568,-146.174774,14.092854,152.346542,-0.109341,-0.624797,1.454084,57.976803,-64.626930,-121.062576
637,95556235,-144.610031,13.641376,154.599304,-0.015978,-1.614495,1.277523,61.764328,-54.988819,-123.161621
638,95572902,-142.918640,13.012321,156.785110,0.651463,-2.863531,0.717861,71.526527,-47.744099,-125.014526
639,95589569,-141.152756,12.238004,158.931061,0.936668,-3.691622,0.874120,78.081917,-43.411743,-127.404610
640,95606236,-139.422104,11.307464,161.027573,1.106615,-3.614119,1.992087,78.444221,-38.472736,-130.171005
641,95622903,-137.893127,10.242284,162.994797,1.548566,-3.365092,2.818164,69.940880,-31.341789,-129.035400
642,95639570,-136.731812,9.138216,164.732315,2.290365,-3.127949,3.231830,52.400002,-23.706549,-120.219254
643,95656237,-135.907211,8.071111,166.221939,3.198727,-3.352349,3.357732,36.375500,-17.446127,-107.898682
644,95672904,-135.245499,7.113247,167.471878,4.125174,-3.607152,3.360423,30.063354,-13.695606,-93.092361
645,95689571,-134.590729,6.337093,168.467377,5.097966,-3.427100,2.746514,32.556892,-11.822950,-74.641251
646,95706238,-133.890915,5.822904,169.216080,5.975245,-2.650118,1.833264,37.493584,-13.163646,-53.051846
647,95722905,-133.201813,5.662456,169.665848,6.563452,-1.596598,0.853059,38.905880,-15.506903,-25.271208
648,95739572,-132.485519,5.857700,169.900696,6.335912,-1.126884,0.725329,41.823536,-20.909792,-0.747743
649,95756239,-131.736267,6.297912,170.077362,5.883559,-0.440149,0.492542,44.092220,-28.188253,12.712064
650,95772906,-131.088974,6.905481,170.233841,5.490239,0.559755,-0.315556,38.018044,-33.757137,21.347281
651,95789573,-130.625076,7.665569,170.332474,4.997769,1.141747,-1.165862,27.347862,-36.912544,30.821901
652,95806240,-130.420258,8.531569,170.354568,4.270139,1.356672,-1.435831,12.370266,-37.392460,38.806862
653,95822907,-130.438385,9.417358,170.297409,3.273260,1.444210,-0.872313,-0.279476,-34.518665,42.805790
654,95839574,-130.649246,10.246605,170.174377,2.544883,1.141894,-0.515517,-11.114653,-29.443962,42.684189
655,95856241,-131.013611,10.992955,169.992737,2.067415,0.754046,-0.369079,-19.571640,-23.801361,41.030090
656,95872908,-131.443390,11.638089,169.758789,1.610969,0.305307,-0.120100,-22.748459,-17.782053,38.324406
657,95889575,-131.864624,12.171846,169.467606,1.298602,0.094301,0.249861,-21.384451,-11.133965,35.427967
658,95906242,-132.342773,12.601103,169.116776,1.238016,0.053001,0.604882,-23.886827,-4.630714,33.033543
659,95922909,-132.941650,12.952881,168.679245,1.406676,0.264568,0.737956,-29.840384,1.915862,33.004822
660,95939576,-133.656265,13.279451,168.126572,2.180793,0.581633,0.582880,-35.062969,7.448133,36.542210
661,95956243,-134.342789,13.581479,167.397903,3.279971,0.946123,0.494668,-30.744028,15.387330,42.706501
662,95972910,-134.917053,13.873187,166.471558,4.266200,1.195070,1.059879,-20.970263,23.519800,50.513748
663,95989577,-135.449783,14.175517,165.425217,4.455024,0.566446,2.192901,-16.447298,27.460901,56.112373
664,96006244,-136.305725,14.547750,164.469757,4.965618,-0.416054,2.421095,-36.825195,20.034025,55.531628
665,96022911,-137.744827,15.083323,163.625504,5.253298,-1.786040,2.078725,-73.078484,7.282946,57.843506
666,96039578,-139.555099,15.778741,162.713135,4.591897,-3.061644,1.979714,-93.731590,0.963320,67.283707
667,96056245,-141.247330,16.477520,161.532654,3.499312,-3.506889,2.374599,-81.541252,8.499291,79.252350
668,96072912,-142.481949,16.995878,159.970749,2.510097,-3.379328,2.690718,-46.774830,28.399517,89.889931
669,96089579,-143.545685,17.344648,158.170624,2.269415,-3.352290,1.918271,-31.622915,42.823032,95.115173
670,96106246,-145.122864,17.698994,156.371918,2.324064,-3.273750,1.426675,-61.820240,40.194069,96.107315
671,96122913,-147.307999,18.091410,154.673965,1.912817,-3.939349,1.386239,-99.482796,31.812813,93.770485
672,96139580,-149.735229,18.384279,153.015549,1.889586,-4.467510,1.261268,-114.171715,31.843838,89.878960
673,96156247,-151.986221,18.397041,151.304382,1.575057,-4.441647,0.972539,-102.349754,44.263275,85.578316
674,96172914,-153.999451,18.108440,149.589890,2.269109,-4.100229,-0.380707,-88.258919,57.292019,79.292709
675,96189581,-156.120529,17.668476,147.950317,3.590755,-4.337777,-2.082385,-96.732674,60.923668,73.879494
676,96206248,-158.587189,17.144844,146.472641,4.391520,-4.814225,-3.190882,-121.157776,59.098717,66.108383
677,96222915,-161.343063,16.486603,145.211838,4.682050,-4.745702,-3.548295,-143.149017,59.459980,54.633423
678,96239582,-164.207626,15.535844,144.128052,4.065134,-4.413729,-3.459229,-153.615997,70.561241,42.949707
679,96256249,-166.897537,14.122979,143.256897,3.240480,-3.902067,-3.579336,-147.691284,92.280830,27.928135
680,96272916,-169.319580,12.238837,142.696152,2.544027,-3.087385,-4.370904,-137.322723,114.970802,8.924033
681,96289583,-171.705414,10.010469,142.576416,2.019509,-1.724678,-5.503936,-141.433609,130.647034,-14.911432
682,96306250,-174.212280,7.596653,142.979965,1.414297,-0.046024,-6.281626,-153.784576,138.425201,-41.317253
683,96322917,-176.853073,5.090587,143.924652,1.087956,1.268165,-6.735779,-164.373016,143.143814,-67.683266
684,96339584,-179.576584,2.507962,145.430862,0.429544,2.535871,-6.643164,-169.057007,149.693863,-94.751961
685,96356251,177.573883,-0.134964,147.572464,0.093565,4.720620,-6.062013,-173.281357,158.407333,-125.466072
686,96372918,174.659195,-2.757719,150.305206,-2.029529,6.745018,-4.928079,-170.379364,165.698563,-152.656097
687,96389585,171.447388,-5.195196,153.655701,-6.991549,7.643580,-2.121223,-178.386658,167.000183,-181.167191
688,96406252,167.778931,-7.080610,157.741684,-11.447232,6.940943,1.340918,-193.491165,152.756531,-219.132797
689,96422919,163.826782,-8.137410,162.335297,-13.634195,4.210639,3.521199,-200.222137,125.987976,-249.067032
690,96439586,160.181747,-8.312554,166.624527,-13.192395,0.179977,1.812984,-181.519135,86.179977,-238.756775
691,96456253,157.835342,-7.937248,169.465851,-12.165976,-5.001966,-1.820045,-116.415825,36.895184,-165.375076
692,96472920,156.772400,-7.582860,170.460449,-9.569749,-6.483078,-3.898017,-55.495251,0.627648,-62.509392
693,96489587,156.688751,-7.867941,169.767136,-4.768631,-0.879367,-3.009498,-10.413728,-3.164562,44.865593
694,96506254,157.721786,-8.774595,167.585709,-2.828087,3.769551,0.724902,43.225807,-2.634506,140.696548
695,96522921,158.868484,-9.385887,164.999100,-0.744384,6.692995,2.815835,44.502777,-25.214235,156.170425
696,96539588,159.269119,-9.251807,162.847092,0.500083,8.383528,2.217571,3.354417,-55.645699,116.353683
697,96556255,158.907516,-8.721681,161.498672,0.253351,8.161874,2.734517,-34.080292,-60.854820,63.521362
698,96572922,158.269989,-8.467976,160.979187,-1.187597,5.709139,2.729476,-42.633312,-28.051226,23.362597
699,96589589,157.763840,-8.739242,161.141052,-1.475844,4.804460,2.817109,-28.625399,16.050406,-2.594281
700,96606256,157.234116,-9.385936,161.560272,-0.734963,4.826658,2.670303,-27.516724,42.709675,-7.885725
701,96622923,156.686752,-10.170778,161.863113,-0.706368,3.912145,1.978833,-29.439444,47.690540,2.170168
702,96639590,156.453903,-10.850648,161.891129,-0.853283,2.507902,1.292669,-13.337623,35.429340,14.917929
703,96656257,156.681351,-11.272862,161.698059,-0.493285,2.219541,0.980239,11.755514,16.062134,20.717089
704,96672924,157.269745,-11.326255,161.327042,-0.643145,2.318771,0.973557,31.280064,-8.254913,21.555984
705,96689591,157.907043,-11.021218,160.767868,-1.394195,2.427325,1.461270,32.078838,-32.138599,23.662926
706,96706258,158.454254,-10.553844,159.929672,-3.035175,1.818365,1.578277,23.769726,-47.069546,35.642590
707,96722925,158.935104,-10.077868,158.738571,-4.119993,1.547897,1.090687,16.402578,-54.837090,55.327171
708,96739592,159.440735,-9.671371,157.141312,-4.446196,1.989992,0.443555,14.253145,-59.042404,79.781464
709,96756259,160.194916,-9.322010,155.206314,-4.338839,2.556029,0.133802,26.441689,-61.895222,100.430618
710,96772926,161.179031,-8.925712,153.041077,-4.317782,3.036458,-0.206758,38.789261,-67.592377,113.363647
711,96789593,162.153763,-8.330677,150.787918,-3.691223,3.627406,-0.372340,38.543774,-78.678818,115.815445
712,96806260,162.973373,-7.494528,148.500137,-3.034381,4.009851,-0.313806,30.622208,-91.365295,114.840820
713,96822927,163.719193,-6.433310,146.202118,-2.687587,3.948576,-0.380348,28.374689,-103.002953,113.031715
714,96839594,164.639206,-5.192744,143.960892,-2.484925,3.591734,-1.178765,41.922180,-110.879875,108.574356
715,96856261,165.810516,-3.814010,141.914749,-1.589943,3.336165,-1.463917,60.975273,-114.008385,97.393600
716,96872928,167.159348,-2.409268,140.109375,-0.860185,3.434854,-1.255204,75.383286,-110.049988,85.616417
717,96889595,168.665665,-1.071550,138.522980,-0.311773,3.725910,-1.354877,87.822235,-101.239113,76.362579
718,96906262,170.334885,0.222232,137.097916,-0.406278,3.684586,-1.754416,99.854454,-94.750397,70.065590
719,96922929,172.202332,1.569390,135.897491,-0.260525,2.965553,-2.396504,113.508011,-93.677391,59.056396
720,96939596,174.300385,2.998132,135.013336,0.028027,1.906307,-2.991770,128.330963,-94.219856,42.708393
721,96956263,176.471100,4.501633,134.519669,0.469592,1.271817,-3.412328,132.513824,-95.158752,22.356493
722,96972930,178.524231,6.006304,134.356689,0.502722,0.871740,-2.943451,124.416504,-93.480949,5.939394
723,96989597,-179.572525,7.399928,134.415359,0.192363,1.021879,-2.021720,114.119041,-86.438957,-4.102465
724,97006264,-177.740921,8.710434,134.629974,-0.213566,1.079614,-1.513702,108.424774,-81.760674,-10.742528
725,97022931,-175.845886,10.017564,135.010269,-0.370966,0.427056,-1.500190,110.321785,-82.414452,-17.927788
726,97039598,-173.805099,11.371065,135.615067,0.012350,-0.921270,-2.134333,116.041214,-86.940742,-28.015596
727,97056265,-171.688705,12.737272,136.481934,0.208801,-1.951198,-3.059566,116.442368,-90.575951,-39.938427
728,97072932,-169.545212,14.080567,137.573822,-0.064185,-2.165639,-3.196358,113.732170,-92.733047,-49.555912
729,97089599,-167.338913,15.315646,138.845749,-0.476838,-1.791089,-2.966597,113.323929,-90.205490,-57.293190
730,97106266,-164.961304,16.342062,140.282196,-0.416353,-1.074886,-1.859217,119.450325,-82.446648,-65.576241
731,97122933,-162.439896,17.133858,141.874283,-0.067227,-0.610323,-0.874865,124.074913,-74.069099,-74.277237
732,97139600,-160.015747,17.742317,143.629623,0.765767,-1.592684,-1.506374,114.185959,-69.688545,-83.192986
733,97156267,-157.753571,18.243500,145.530701,1.810681,-3.634203,-2.671519,100.793434,-69.910583,-90.172607
734,97172934,-155.538879,18.595205,147.515472,1.314537,-5.138313,-3.383952,95.546150,-66.921349,-95.165932
735,97189601,-153.285004,18.621302,149.579880,1.054889,-4.080209,-2.290072,95.992989,-54.859024,-104.997047
736,97206268,-151.070389,18.270060,151.662979,1.070319,-0.727273,-0.003297,93.607307,-39.433620,-114.487892
737,97222935,-149.262405,17.590544,153.633347,1.680045,0.660853,0.261186,72.362144,-23.316494,-117.649597
738,97239602,-147.963943,16.786808,155.525085,2.062076,-0.351832,-0.375179,44.650425,-18.030766,-117.477165
739,97256269,-146.926605,16.013191,157.495712,1.764926,-2.395640,-0.835922,29.145866,-24.626627,-120.378304
740,97272936,-145.875977,15.302859,159.642014,0.909323,-4.400351,-0.744111,28.565491,-35.822899,-126.662674
741,97289603,-144.663300,14.546085,161.904449,0.470159,-4.500636,0.366269,38.072510,-40.107704,-133.461838
742,97306270,-143.219086,13.661840,164.068481,0.324633,-2.834528,1.943411,55.274540,-33.924267,-132.828293
743,97322937,-141.664948,12.662714,165.943756,1.141935,-1.704164,2.300408,67.882248,-21.944824,-123.190620
744,97339604,-140.229538,11.688679,167.570557,2.401854,-1.139310,1.846821,65.792908,-17.406109,-110.713242
745,97356271,-138.972488,10.806096,169.032028,2.913068,-1.201090,2.076345,58.573612,-18.084232,-99.618813
746,97372938,-137.755478,9.967802,170.430862,3.611817,-0.857257,2.566910,58.141987,-19.923172,-94.924866
747,97389605,-136.501450,9.171511,171.781082,4.288727,-0.541721,2.408125,62.027020,-21.992157,-90.862610
748,97406272,-135.287109,8.461002,173.026413,5.029528,-0.111964,1.893768,61.660393,-23.431982,-82.506706
749,97422939,-134.276459,7.889132,174.089020,5.299170,0.234826,1.360116,51.830269,-23.267202,-68.632286
750,97439606,-133.604584,7.488966,174.926575,5.059973,0.272947,1.221432,33.845146,-21.837336,-51.679081
751,97456273,-133.402863,7.268120,175.553741,4.668098,0.597289,1.239226,7.531902,-20.578329,-35.138725
752,97472940,-133.578720,7.195437,175.968918,4.189350,0.553748,1.547116,-13.427794,-17.554590,-20.017155
753,97489607,-133.930923,7.215755,176.193665,3.986428,0.259793,1.507621,-22.560955,-13.127401,-8.217870
754,97506274,-134.229218,7.328776,176.268677,3.870755,-0.332425,1.131770,-18.204395,-10.539808,1.917402
755,97522941,-134.397934,7.544447,176.262939,3.518605,-0.871246,0.781640,-9.817769,-11.406065,9.646297
756,97539608,-134.584198,7.870856,176.246765,3.255615,-1.033354,0.255229,-10.785862,-15.649326,14.788463
757,97556275,-134.875000,8.312254,176.212921,2.747192,-1.207906,0.094419,-16.903612,-19.814444,20.374525
758,97572942,-135.259552,8.842001,176.120560,2.117855,-1.438703,0.392632,-21.989950,-21.234795,26.469875
759,97589609,-135.684586,9.411997,175.926758,1.582369,-1.747453,0.664158,-23.402737,-18.932882,32.310219
760,97606276,-136.107086,9.993083,175.576431,1.693307,-1.896296,0.583238,-21.555954,-13.218509,39.286400
761,97622943,-136.511490,10.577954,175.006119,1.931033,-1.730347,0.301581,-17.906059,-4.717174,48.729298
762,97639610,-136.889877,11.160601,174.177887,2.063532,-1.565002,0.259787,-13.085073,5.428805,59.637421
763,97656277,-137.313721,11.715838,173.123978,2.502463,-1.122958,0.195063,-12.642832,15.189490,68.225365
764,97672944,-137.898224,12.237410,171.878326,3.029270,-0.521988,0.244426,-19.312422,23.587057,75.237350
765,97689611,-138.675934,12.704000,170.435272,3.383146,-0.327725,0.371268,-27.713362,32.761940,81.877213
766,97706278,-139.583359,13.077296,168.799713,3.652073,-0.430625,0.212746,-32.296246,43.068798,87.133659
767,97722945,-140.452850,13.297930,166.970367,3.946876,-0.849369,-0.371862,-26.869335,55.937542,90.533020
768,97739612,-141.099426,13.312106,164.936249,4.254143,-1.010032,-0.985728,-10.444242,71.861122,92.682632
769,97756279,-141.410568,13.083322,162.739792,4.008270,-1.052080,-1.065356,11.684797,88.424652,91.616386
770,97772946,-141.605408,12.644968,160.527115,2.917333,-0.813810,-0.386944,18.134813,98.565079,85.071518
771,97789613,-142.108902,12.090350,158.426926,1.738499,-0.919898,0.484735,-2.945483,99.616104,76.388474
772,97806280,-143.177551,11.531858,156.533066,0.773580,-1.507442,0.859774,-40.579182,91.546211,68.215668
773,97822947,-144.913986,11.102097,154.849060,1.085818,-1.816673,0.813340,-84.074959,76.468582,65.202950
774,97839614,-146.835922,10.813412,153.238205,1.001838,-2.481676,1.297544,-96.659988,65.001968,68.979553
775,97856281,-148.356125,10.528455,151.690399,0.954180,-2.805625,1.603865,-73.734711,60.768658,68.035065
776,97872948,-149.119125,10.173400,150.233032,1.131663,-2.446856,1.711984,-29.792603,60.281094,62.625389
777,97889615,-149.447235,9.785486,148.907623,1.480201,-1.707019,1.312565,-5.632796,57.447750,55.596920
778,97906282,-150.001633,9.477558,147.750580,1.385868,-1.088462,1.400994,-21.376293,47.892735,49.942844
779,97922949,-151.231216,9.298697,146.786438,1.028116,-0.876265,1.301663,-64.061394,34.786579,44.616821
780,97939616,-153.043594,9.209604,145.934845,1.230319,-1.341360,0.920226,-100.248764,25.728455,42.242973
781,97956283,-155.042740,9.133216,145.113480,0.960944,-2.370682,0.413415,-111.814499,22.850399,41.899811
782,97972950,-156.833282,9.002037,144.371979,0.988395,-3.067532,-0.506057,-100.144173,22.538616,37.072651
783,97989617,-158.462021,8.836817,143.778595,1.614442,-3.126371,-1.924462,-91.930771,19.984406,28.924297
784,98006284,-160.267731,8.632781,143.383423,2.350230,-2.778480,-2.710174,-104.470886,17.160429,17.787649
785,98022951,-162.381226,8.311312,143.126984,2.457329,-1.750984,-2.854498,-124.272888,20.596924,8.417196
786,98039618,-164.751556,7.767562,142.958908,1.830071,-1.126911,-2.583227,-140.538651,31.572559,0.527475
787,98056285,-167.175797,6.900882,142.894775,1.069500,-1.134724,-2.949753,-144.690384,48.831356,-8.729067
788,98072952,-169.567001,5.677886,142.974518,0.673582,-1.267276,-3.898635,-143.721939,68.373390,-19.263838
789,98089619,-171.995911,4.097600,143.236969,0.452482,-0.729702,-4.363645,-146.799744,88.540039,-30.482765
790,98106286,-174.643204,2.281228,143.750778,-0.042001,0.420741,-4.496102,-160.272369,102.123650,-43.050690
791,98122953,-177.571228,0.354534,144.563400,-0.342076,1.119192,-4.265414,-176.519760,109.486076,-56.278000
792,98139620,179.287811,-1.576438,145.733124,-0.459678,1.489695,-4.990706,-187.422958,112.250443,-71.709053
793,98156287,175.977661,-3.511122,147.348175,0.234138,2.314715,-5.115917,-194.014877,117.429367,-91.725182
794,98172954,172.774384,-5.480386,149.513550,1.605443,3.874818,-4.256351,-181.710968,127.717789,-117.113045
795,98189621,169.914993,-7.463990,152.233002,0.743093,5.639479,-2.936620,-152.858917,139.480698,-142.160583
796,98206288,167.397842,-9.161295,155.596237,-3.148413,5.773520,0.109215,-121.534897,136.528168,-175.527954
797,98222955,164.984528,-10.140750,159.674545,-8.540319,3.967685,2.607212,-103.445656,112.042854,-220.013275
798,98239622,162.695328,-10.127895,164.249527,-11.968604,1.309104,1.844335,-88.720688,71.866753,-259.523773
799,98256289,161.078644,-9.217042,168.278595,-12.355536,-2.601686,-2.271672,-56.090675,19.546722,-243.261368
800,98272956,160.518661,-8.099763,170.568069,-11.176311,-6.249908,-1.984677,-12.672687,-21.275028,-150.076080
801,98289623,160.472702,-7.895394,170.853485,-6.834939,-3.572871,-1.544502,-0.148541,-8.554054,-19.873415
802,98306290,161.278839,-9.001405,169.298294,-4.009237,1.532082,0.594639,34.870697,29.786913,109.144020
803,98322957,162.737213,-10.323616,166.840714,-2.092754,4.930563,2.066384,62.953533,27.867611,162.951126
804,98339624,163.982910,-10.737823,164.635422,0.490476,7.306762,1.224515,50.777527,-16.121565,131.952774
805,98356291,164.332901,-10.223454,163.316498,1.229038,7.936198,0.406933,6.844038,-53.609905,66.627495
806,98372958,163.747131,-9.493872,162.848328,0.102743,6.627185,2.686845,-39.698166,-52.378391,14.765770
807,98389625,162.796112,-9.235904,162.966644,-2.129975,4.150368,4.429187,-55.636257,-15.491019,-10.975100
808,98406292,161.890366,-9.573406,163.302155,-2.182635,3.901550,2.867164,-50.780663,22.629032,-12.586146
809,98422959,160.991241,-10.212709,163.552887,-0.893590,4.070293,0.979284,-51.080357,38.384102,-1.648944
810,98439626,160.355316,-10.971918,163.520432,-0.279040,3.267659,0.968848,-38.224785,39.652393,17.069468
811,98456293,160.278809,-11.704984,163.223907,0.288954,2.302356,1.410934,-7.796207,32.837326,31.424786
812,98472960,160.622604,-12.084671,162.793350,0.509279,2.371717,0.842429,15.599007,10.307041,31.634644
813,98489627,161.008163,-11.930442,162.269852,-0.065522,2.669734,0.473196,16.899567,-21.537315,26.163280
814,98506294,161.273193,-11.419127,161.509262,-1.928316,2.400142,0.586081,6.971747,-46.180790,32.562778
815,98522961,161.511200,-10.835839,160.420761,-3.346790,2.075418,0.492226,1.981495,-56.323765,49.750668
816,98539628,161.852859,-10.365971,159.003677,-3.411026,2.529208,-0.075598,5.162893,-55.744854,70.660309
817,98556295,162.509781,-10.120285,157.287369,-3.278793,2.746132,-0.251322,21.407011,-47.767475,92.145432
818,98572962,163.417297,-10.041048,155.326538,-3.707276,2.871210,-0.126033,34.159531,-41.216389,109.531525
819,98589629,164.237228,-9.895461,153.225922,-3.977932,3.204877,0.174635,27.678701,-45.707188,116.957787
820,98606296,164.824890,-9.563493,151.066849,-3.801854,3.485169,0.102843,13.668823,-56.002373,117.910378
821,98622963,165.320297,-9.058611,148.876953,-3.455565,3.426091,-0.221796,8.764350,-65.431938,117.647766
822,98639630,165.929565,-8.428753,146.705505,-2.769381,3.243831,-0.654149,17.048140,-71.348465,115.516289
823,98656297,166.730087,-7.710079,144.576950,-1.744542,3.355064,-0.721528,30.395975,-74.561905,112.834351
824,98672964,167.675385,-6.905433,142.522034,-0.799574,3.284949,-0.732859,41.325459,-76.954231,108.714630
825,98689631,168.719254,-6.004768,140.598541,-0.085867,3.246087,-0.698582,49.946663,-79.146347,101.357735
826,98706298,169.842163,-4.982062,138.883362,0.238362,3.207343,-0.737535,57.813168,-82.144638,89.394531
827,98722965,171.118210,-3.841580,137.421753,0.237922,2.984836,-0.932034,70.106522,-84.753609,75.075661
828,98739632,172.648163,-2.611160,136.236588,0.213456,2.760038,-1.335866,88.086700,-85.922127,60.022282
829,98756299,174.393661,-1.322116,135.315903,0.516724,2.695862,-1.498927,103.126053,-85.896667,46.289528
830,98772966,176.213394,0.015882,134.644653,0.835747,2.833293,-1.734029,109.017593,-86.131706,33.730385
831,98789633,178.021713,1.411570,134.186996,0.717458,3.117006,-2.076695,109.138641,-87.844574,23.379324
832,98806300,179.789047,2.902477,133.919312,-0.323431,3.066126,-1.769562,106.945625,-92.577477,14.506024
833,98822967,-178.548981,4.476665,133.896286,-1.188343,2.723021,-1.462050,100.110954,-97.269096,2.571211
834,98839634,-176.889221,6.065057,134.164536,-1.217423,2.224418,-1.424263,98.411957,-98.709900,-12.049441
835,98856301,-175.100220,7.595799,134.653595,-1.012042,1.396717,-2.145410,104.154556,-96.504761,-22.475653
836,98872968,-173.164749,9.079781,135.322250,-0.622805,0.360130,-3.195321,110.615608,-95.482056,-30.209616
837,98889635,-171.094437,10.529995,136.203217,0.113003,-0.920224,-3.381461,115.521301,-96.178551,-39.500927
838,98906302,-168.927551,11.896769,137.347397,0.330679,-1.682977,-3.177178,116.965965,-95.293365,-51.913006
839,98922969,-166.759506,13.119514,138.784714,0.127642,-2.212271,-2.514574,111.708237,-92.291359,-66.666458
840,98939636,-164.655869,14.091741,140.494675,-0.033410,-2.477309,-2.370403,102.385498,-83.980042,-82.040337
841,98956303,-162.487595,14.783488,142.422470,0.086928,-2.080895,-1.485024,101.558075,-74.318794,-95.507668
842,98972970,-160.381500,15.296863,144.478119,0.432709,-2.105969,-1.585319,94.660011,-69.946968,-102.905678
843,98989637,-158.539673,15.781080,146.612289,0.879131,-3.132735,-1.832013,76.511024,-73.304947,-105.127907
844,99006304,-156.788986,16.253326,148.894058,1.080043,-4.411754,-1.965474,67.569138,-79.023590,-110.741394
845,99022971,-154.958908,16.658392,151.354950,0.713295,-5.079484,-1.899989,68.275658,-82.853630,-119.092789
846,99039638,-153.002274,16.929960,153.976364,0.237330,-4.886517,-1.097476,72.242676,-83.480667,-127.957054
847,99056305,-151.059631,17.014153,156.615692,0.088799,-4.322787,-0.421597,70.618271,-78.269402,-131.186417
848,99072972,-149.296402,16.962563,159.163361,0.292569,-3.809896,0.250295,61.416325,-72.781326,-128.150101
849,99089639,-147.778931,16.857986,161.591263,0.670730,-4.276577,0.430209,48.959759,-70.150719,-121.939110
850,99106306,-146.355072,16.749411,163.969482,1.270071,-5.411002,0.270526,44.458878,-71.545532,-117.968269
851,99122973,-144.754974,16.602030,166.318466,1.916976,-6.341991,-0.067113,55.832150,-71.810913,-116.120270
852,99139640,-142.805710,16.317017,168.495712,2.124130,-6.329577,0.189363,80.200424,-62.957378,-110.950584
853,99156307,-140.687683,15.837935,170.331375,2.683534,-4.379625,0.839650,96.828285,-45.669174,-100.682983
854,99172974,-138.747772,15.259915,171.724152,3.850545,-1.557517,1.458705,94.238029,-28.303249,-83.619759
855,99189641,-137.281006,14.743513,172.632111,4.953734,-0.224905,1.112463,74.152702,-14.865241,-59.621342
856,99206308,-136.305313,14.433843,173.159210,5.634283,-0.509142,1.234912,50.826508,-10.096217,-34.818268
857,99222975,-135.569290,14.317251,173.545639,5.867469,-0.771583,1.561618,38.659035,-13.266771,-20.803274
858,99239642,-134.855972,14.331516,173.927368,5.870625,0.208184,1.777463,37.384998,-18.901085,-14.954564
859,99256309,-134.081894,14.447102,174.248230,5.466652,1.192972,1.826935,41.915073,-20.816603,-7.934902
860,99272976,-133.335373,14.658809,174.511932,5.135852,1.870365,1.390678,41.075035,-22.485819,-1.226730
861,99289643,-132.814575,14.975616,174.756424,4.287622,1.779684,0.960073,27.762703,-25.974026,4.359451
862,99306310,-132.630432,15.358797,175.036148,3.316003,1.383448,0.765243,6.929444,-30.122637,6.052155
863,99322977,-132.708725,15.726520,175.328171,2.124213,0.800260,0.880848,-9.115963,-29.987259,4.925730
864,99339644,-132.946198,16.007408,175.548721,1.377405,0.689577,0.866343,-17.587244,-23.408030,3.848045
865,99356311,-133.237579,16.194992,175.606720,0.838924,0.494443,0.825482,-18.169502,-12.748820,6.071354
866,99372978,-133.521591,16.299711,175.496475,0.808860,-0.004723,0.456844,-14.908642,-2.319796,9.061404
867,99389645,-133.792267,16.365408,175.298080,0.921400,-0.353944,0.118101,-12.611680,2.930845,10.873439
868,99406312,-134.088959,16.399216,175.062042,0.958237,-0.260241,-0.045692,-13.526107,5.763395,11.019947
869,99422979,-134.437866,16.383066,174.797607,1.074613,0.023952,-0.066604,-16.174444,8.969025,10.063803
870,99439646,-134.804504,16.326515,174.484238,1.306870,-0.019575,0.061754,-16.422112,12.619189,10.388985
871,99456313,-135.173264,16.241678,174.130478,1.793194,-0.323452,0.210375,-15.891547,15.406026,10.932887
872,99472980,-135.585648,16.156527,173.748672,2.509253,-0.348164,0.512180,-18.068169,16.488018,12.195421
873,99489647,-136.073212,16.092016,173.300827,2.982890,-0.132478,0.826735,-21.507421,18.169466,15.940680
874,99506314,-136.672104,16.080847,172.721085,3.234271,0.153417,1.555459,-26.008245,20.959692,23.849344
875,99522981,-137.433868,16.157927,171.979965,3.668283,0.077902,2.089871,-33.072311,23.140783,34.534050
876,99539648,-138.378830,16.346048,171.047791,4.213080,-0.455219,2.136791,-40.751705,25.048195,47.518642
877,99556315,-139.470932,16.641960,169.910873,4.759433,-1.097351,1.841431,-45.860413,27.030640,61.075943
878,99572982,-140.678925,17.016624,168.561890,5.327624,-1.416006,1.350826,-48.745365,29.932404,73.933121
879,99589649,-141.970230,17.427641,166.996948,5.760036,-1.642576,1.005363,-49.372692,34.256874,85.514290
880,99606316,-143.265396,17.818188,165.246536,5.015106,-1.566373,1.393831,-45.602310,39.632847,93.845184
881,99622983,-144.703003,18.128464,163.392899,4.290060,-1.833220,1.361588,-51.619553,44.644737,96.591721
882,99639650,-146.393784,18.381357,161.547012,4.390655,-1.923871,0.945356,-66.428314,44.497982,95.392174
883,99656317,-148.362930,18.570953,159.724213,4.511887,-2.782213,0.409604,-83.156792,43.859791,93.572510
884,99672984,-150.376541,18.646318,157.963272,4.593128,-3.210325,0.022631,-86.767128,44.664227,88.540886
885,99689651,-152.239105,18.549639,156.272354,3.948670,-3.423683,-0.120497,-79.058769,48.808670,81.644127
886,99706318,-153.787476,18.211151,154.626556,2.511223,-4.005529,0.113405,-61.423210,58.194019,74.375885
887,99722985,-155.133865,17.625980,153.109406,1.966566,-4.753187,-0.544268,-52.439236,66.604233,63.101223
888,99739652,-156.472275,16.844229,151.793228,2.494210,-4.994637,-1.310022,-56.571758,71.293892,49.663994
889,99756319,-157.851822,15.827038,150.632919,2.614684,-5.008924,-2.007891,-62.859653,79.790428,37.985859
890,99772986,-159.067032,14.504642,149.562607,2.102513,-4.881472,-2.180368,-55.782787,94.187943,28.626499
891,99789653,-159.829391,12.779391,148.549408,1.587303,-5.032799,-2.422899,-31.079926,115.307381,19.088099
892,99806320,-159.896011,10.550181,147.611404,1.462232,-5.265966,-3.296069,7.695010,142.206802,5.822690
893,99822987,-159.336334,7.776530,146.842285,1.617752,-4.542917,-4.778354,41.225121,169.535294,-15.137885
894,99839654,-158.577271,4.584388,146.327881,1.983842,-2.971751,-6.886860,49.149147,187.455078,-40.016212
895,99856321,-158.409470,1.191159,146.137268,2.517263,-1.038118,-9.229960,10.932181,191.296371,-63.901386
896,99872988,-159.694397,-2.157651,146.392502,2.350390,1.103114,-10.359345,-76.655251,179.876953,-86.027008
897,99889655,-162.305298,-5.487743,147.233841,0.591634,2.624902,-9.436525,-152.949371,170.237045,-112.560623
898,99906322,-165.741592,-8.833757,149.041946,0.838273,6.026023,-7.676381,-192.286942,161.089203,-158.616074
899,99922989,-169.543976,-12.139312,151.940216,-3.184525,7.767229,-5.008700,-196.088745,154.823746,-209.335922
900,99939656,-174.296478,-14.941582,156.197525,-11.411409,7.294055,-1.949453,-224.873108,129.190140,-269.355896
901,99956323,178.965439,-16.373917,162.001312,-16.109051,7.885015,2.164692,-309.692291,69.799240,-338.401398
902,99972990,170.505096,-16.191015,168.006836,-18.423195,5.941058,7.100897,-405.913208,18.407001,-345.356232
903,99989657,162.029877,-14.628355,172.349823,-17.205494,-2.015521,5.750021,-438.769287,-33.914970,-266.200653
904,100006324,155.761642,-12.994226,173.488235,-14.552026,-11.734224,-0.771744,-359.528290,-70.170937,-96.977272
905,100022991,153.595612,-13.002068,172.173721,-10.432703,-10.946675,-6.648601,-147.525238,-35.042858,69.900330
906,100039658,155.356308,-14.894368,169.586838,-5.637103,-1.948605,-1.885980,68.327202,34.910702,185.063232
907,100056325,159.601227,-17.097580,166.033096,-1.691171,5.405827,3.644672,195.942764,40.937916,240.186630
908,100072992,164.046127,-18.085533,162.517181,3.139511,9.767015,3.145814,202.990860,-9.056504,209.758179
909,100089659,166.119186,-17.720442,159.940796,5.036048,11.854733,3.358454,77.020927,-61.658169,136.704315
910,100106326,165.836914,-16.987148,158.379745,3.916906,11.696104,5.315938,-44.644516,-66.970558,76.286827
911,100122993,164.966339,-16.980261,157.389236,1.195324,8.126866,5.169119,-69.318100,-17.356073,55.117966
912,100139660,164.146530,-17.619896,156.965515,0.472777,6.180738,2.955941,-56.444836,27.887947,33.835938
913,100156327,163.119263,-18.382088,156.913696,0.576296,5.390470,1.992220,-62.272556,40.395302,15.947039
914,100172994,161.818954,-18.929396,156.911652,0.013215,4.598314,1.994071,-77.714058,28.621073,10.229793
915,100189661,160.753433,-19.223421,156.620178,-1.351714,2.864621,2.237307,-69.288284,8.740300,21.542027
916,100206328,160.392395,-19.369757,155.964828,-1.305580,2.030654,2.530070,-34.291409,-6.739802,38.145309
917,100222995,161.041397,-19.427011,154.972839,-1.691501,1.749619,2.708647,19.539660,-17.981562,54.353401
918,100239662,162.361908,-19.249344,153.784500,-1.963534,2.490693,2.982886,55.988770,-33.937870,60.751106
919,100256329,163.796280,-18.730104,152.410782,-2.468127,3.051344,2.679652,59.613865,-55.194481,65.713417
920,100272996,165.050034,-17.920687,150.913849,-2.834749,3.260672,1.990244,47.362164,-72.395241,69.297768
921,100289663,166.175369,-16.960178,149.357162,-3.108079,3.189590,1.116226,39.908344,-80.699158,72.198273
922,100306330,167.354370,-15.965438,147.793793,-3.231186,3.111060,0.320417,44.543056,-81.447357,74.096321
923,100322997,168.641937,-14.941242,146.279587,-3.040403,3.340895,-0.455742,53.431488,-81.090958,73.068001
924,100339664,169.962067,-13.878090,144.836090,-2.245682,3.631108,-1.263047,58.043278,-81.045593,70.768745
925,100356331,171.209152,-12.775331,143.451813,-1.265638,3.858793,-1.904054,56.072304,-81.304306,69.083031
926,100372998,172.308197,-11.624854,142.096542,-0.841408,3.446229,-1.920040,49.156109,-82.535507,68.939796
927,100389665,173.269974,-10.470836,140.846741,-0.923990,2.857762,-1.504518,43.741531,-80.772499,64.496033
928,100406332,174.210953,-9.352028,139.781921,-0.829108,2.611750,-1.103839,45.869892,-76.444916,55.409603
929,100422999,175.235062,-8.276151,138.919113,-0.660220,2.439409,-0.965632,53.923725,-71.851410,45.171288
930,100439666,176.341232,-7.208961,138.250397,-0.376308,2.081395,-1.875130,61.377159,-69.656502,35.111588
931,100456333,177.355240,-6.096241,137.798462,0.345264,1.584958,-2.442006,58.114155,-71.030006,23.387640
932,100473000,178.251938,-4.946619,137.511703,0.593180,1.285694,-2.222384,52.567142,-72.474228,14.634350
933,100489667,179.093002,-3.797828,137.356766,0.328479,0.958451,-1.413211,50.178112,-72.017471,7.833071
934,100506334,-179.867645,-2.692160,137.349533,-0.729824,0.547067,-0.836485,62.764263,-69.237625,0.143416
935,100523001,-178.594070,-1.573384,137.563431,-0.437487,-0.028370,-1.478175,77.315628,-70.192963,-11.759273
936,100539668,-177.318176,-0.369793,137.991699,0.586426,-0.237167,-2.119830,77.411560,-75.987183,-22.930510
937,100556335,-176.190872,0.916190,138.569305,1.207050,-0.485774,-2.500463,67.897194,-81.894279,-30.066868
938,100573002,-175.168762,2.213631,139.236725,0.433852,-0.854825,-2.093034,60.659286,-83.530006,-33.885361
939,100589669,-174.018036,3.422380,140.015076,-0.216008,-0.996402,-1.591739,67.173347,-79.481323,-39.436905
940,100606336,-172.563812,4.507779,140.907455,-0.174629,-1.224390,-1.572456,83.972542,-73.798546,-45.273308
941,100623003,-170.933975,5.483418,141.954117,0.462588,-1.681433,-2.328892,92.741020,-69.785393,-53.341785
942,100639670,-169.360489,6.379474,143.081253,0.917055,-1.890043,-3.042118,87.839767,-67.345840,-56.897072
943,100656337,-168.085236,7.220890,144.209290,0.905584,-2.043325,-2.763466,68.918671,-65.507050,-55.859394
944,100673004,-167.129761,7.989851,145.300522,0.290347,-1.894088,-1.529636,49.080090,-61.834106,-53.310772
945,100689671,-166.250351,8.622245,146.397125,-0.265645,-1.869172,-0.707804,43.673943,-54.747829,-54.444798
946,100706338,-165.229233,9.139915,147.535583,-0.553082,-1.968296,-0.901211,51.128735,-49.555832,-57.579136
947,100723005,-164.084244,9.644823,148.730896,0.004900,-2.471264,-1.849225,57.396259,-50.760036,-60.040779
948,100739672,-162.921890,10.161843,149.946320,0.738794,-2.566813,-2.091897,57.592598,-52.957241,-59.890030
949,100756339,-161.827820,10.615678,151.132462,0.695407,-2.229131,-1.835406,53.201691,-49.950932,-58.289211
950,100773006,-160.768631,10.954852,152.276184,0.293351,-1.712064,-1.222424,51.095058,-43.683567,-57.146057
951,100789673,-159.611206,11.169712,153.378433,-0.144419,-1.580518,-0.813683,57.134846,-36.910088,-56.510075
952,100806340,-158.293091,11.346432,154.526810,-0.095013,-1.870749,-0.942290,66.010384,-36.944962,-59.072960
953,100823007,-156.915848,11.587937,155.856293,0.941499,-1.637471,-1.498752,67.144600,-45.956238,-66.575172
954,100839674,-155.581299,11.925246,157.311493,1.320639,-1.386817,-1.675138,62.645561,-55.716488,-69.902397
955,100856341,-154.293762,12.336310,158.869110,0.860545,-1.450226,-1.421211,57.975281,-63.798687,-72.131760
956,100873008,-152.941315,12.753098,160.550491,0.499185,-1.405762,-0.628190,59.593102,-68.903229,-76.920265
957,100889675,-151.392395,13.105888,162.376373,0.313364,-1.314389,-0.159010,68.774620,-71.307755,-84.354805
958,100906342,-149.637405,13.392859,164.380890,0.969970,-0.962797,-0.325492,78.080170,-75.337257,-93.247887
959,100923009,-147.720840,13.668658,166.547363,1.761142,-0.729580,-0.490760,84.922791,-82.555374,-99.181183
960,100939676,-145.670563,13.960161,168.881989,2.449183,-0.510462,-0.068560,89.906799,-92.018494,-103.908813
961,100956343,-143.507751,14.185095,171.303818,2.591224,-0.822124,0.716204,94.772049,-95.367218,-106.886925
962,100973010,-141.173203,14.256043,173.778641,3.039330,-0.653340,1.391385,103.924980,-93.998093,-111.188797
963,100989677,-138.825851,14.179795,176.233521,3.927742,0.089227,1.627089,104.993828,-90.947327,-112.163437
964,101006344,-136.902512,14.073417,178.573456,5.030456,0.948626,1.705894,81.468086,-89.267838,-105.108139
965,101023011,-135.700058,14.025938,-179.390274,5.629292,0.772593,2.397789,42.832634,-82.458153,-87.536285
966,101039678,-135.104019,14.030893,-177.769043,5.669062,0.065897,3.376601,12.534369,-69.085663,-66.884727
967,101056345,-134.894714,14.047137,-176.650925,5.594074,-0.433378,3.764251,-3.365562,-49.305637,-45.247894
968,101073012,-134.944931,14.107619,-176.113907,5.539258,-0.967502,3.264253,-10.504146,-27.266191,-19.432528
969,101089679,-135.210876,14.268243,-176.170029,5.314694,-1.507514,2.777720,-14.792377,-7.068076,9.170465
970,101106346,-135.782013,14.557061,-176.726959,4.901430,-1.574117,2.442828,-25.618307,7.793364,35.267643
971,101123013,-136.679779,14.971174,-177.698502,4.385806,-1.335406,2.455599,-38.681828,18.538164,57.921726
972,101139680,-137.750687,15.462691,-179.030136,4.167518,-1.570652,2.437923,-42.955086,28.230841,76.634789
973,101156347,-138.801605,16.002728,179.361496,4.466460,-1.748467,2.093873,-36.558720,35.162537,90.908806
974,101173014,-139.764389,16.595564,177.581894,4.862209,-1.637074,1.633094,-27.471367,37.437450,100.886368
975,101189681,-140.720856,17.261841,175.697464,4.423869,-2.022292,1.595688,-24.131987,36.011051,108.721642
976,101206348,-141.885971,18.003748,173.820267,3.924679,-2.318823,1.661838,-35.451530,29.953678,111.600357
977,101223015,-143.348236,18.807835,171.965698,3.588045,-2.319667,1.711474,-52.260731,23.371241,113.178123
978,101239682,-145.005676,19.611441,170.036026,3.271470,-2.071241,1.755959,-61.004074,22.520073,116.861549
979,101256349,-146.681961,20.361202,167.913742,2.757358,-2.495386,1.694306,-56.701096,27.602407,124.273972
980,101273016,-148.286789,21.009903,165.607208,1.979240,-3.309722,1.589677,-47.045097,34.428192,130.087936
981,101289683,-149.977753,21.594524,163.246674,2.158972,-3.496597,0.990297,-49.642551,35.260342,131.256805
982,101306350,-151.847565,22.117420,160.867950,2.234717,-3.251458,0.730859,-58.686543,34.665821,131.016098
983,101323017,-153.753113,22.480782,158.460571,2.042072,-3.015955,0.547153,-59.150291,39.396133,128.843185
984,101339684,-155.465698,22.590458,156.076401,2.036511,-2.949651,0.071015,-47.550465,48.419594,122.205307
985,101356351,-156.894333,22.406616,153.837097,2.216374,-2.755034,-0.787795,-33.922356,57.946552,109.132149
986,101373018,-158.257095,21.995420,151.866562,2.854881,-2.366688,-2.128563,-36.703499,62.297035,91.810425
987,101389685,-159.883133,21.458597,150.238266,3.528260,-1.585095,-3.060199,-60.997799,60.255634,73.304504
988,101406352,-161.885422,20.837902,148.912994,3.320671,-1.507562,-3.307743,-91.037086,57.244743,57.925858
989,101423019,-164.007294,20.052395,147.844833,2.507173,-2.112322,-2.924075,-104.501938,60.460030,43.655785
990,101439686,-165.822342,19.026270,147.044174,1.844219,-3.104030,-3.248984,-92.408211,69.037003,27.769367
991,101456353,-167.153732,17.728104,146.559769,1.965937,-3.843199,-4.083911,-70.296562,80.002258,8.711428
992,101473020,-168.164581,16.181805,146.387772,2.482974,-3.720111,-5.260303,-57.225784,90.589363,-10.074206
993,101489687,-169.218506,14.397473,146.485382,2.602610,-2.761405,-6.209751,-64.369102,101.741592,-26.404341
994,101506354,-170.554306,12.389822,146.808228,1.850050,-1.284765,-6.723203,-84.230507,113.168503,-39.558163
995,101523021,-172.167023,10.190156,147.322098,0.488789,-0.477473,-6.867704,-102.396698,123.843246,-49.560772
996,101539688,-173.954086,7.760907,148.052155,-0.201997,0.072731,-6.967073,-113.658257,137.367584,-60.378567
997,101556355,-175.890076,5.052600,149.045517,-0.486902,1.424030,-7.151940,-122.416962,154.525177,-73.174294
998,101573022,-177.976837,2.078186,150.308029,-0.590934,3.400166,-7.004696,-129.522873,172.064026,-84.814209
999,101589689,179.669144,-1.056985,151.900574,-0.653341,5.494254,-6.094763,-141.693268,184.563660,-98.071312
1000,101606356,177.129593,-4.268226,153.949081,-3.449323,6.122303,-3.361331,-146.248291,193.888779,-117.079063
1001,101623023,174.283951,-7.315415,156.827469,-6.946704,6.076935,1.019722,-152.878128,192.993042,-157.376144
1002,101639690,170.850693,-9.840297,160.597046,-8.749436,5.288412,5.031815,-171.814743,176.903137,-201.877502
1003,101656357,167.072662,-11.633142,164.702972,-10.336786,2.123765,5.661832,-180.354324,149.629120,-216.669418
1004,101673024,164.072601,-12.580709,168.210846,-10.479505,-2.975992,3.484375,-135.512207,104.000549,-184.809219
1005,101689691,162.872375,-13.077303,170.262787,-9.265036,-7.415316,1.281855,-44.423702,60.339115,-106.282501
1006,101706358,163.031433,-13.570383,170.616577,-6.697725,-4.646788,-0.211674,14.626733,31.931576,-10.771369
1007,101723025,163.794205,-14.147865,169.349823,-4.505950,1.227568,0.296096,27.722010,9.705079,80.899109
1008,101739692,164.798721,-14.554609,167.118378,-3.455300,4.413745,1.996562,27.252052,-14.071092,131.745560
1009,101756359,165.724304,-14.582592,164.961700,-1.486941,6.351413,2.627609,23.179623,-32.713360,121.815208
1010,101773026,166.356003,-14.319036,163.478851,-0.553856,7.126618,1.922315,15.937772,-38.620533,80.061966
1011,101789693,166.447250,-14.004809,162.826324,-0.384277,6.620971,2.202868,-3.824745,-29.755104,32.728622
1012,101806360,166.002563,-13.920416,162.821747,-1.250715,5.381845,2.005172,-26.432438,-7.501378,-0.680211
1013,101823027,165.399857,-14.159216,163.035080,-1.972465,4.387813,1.136572,-32.718250,14.413851,-8.228976
1014,101839694,164.751602,-14.533078,163.117966,-1.428991,4.575762,-0.015146,-37.301178,20.360928,1.382064
1015,101856361,164.248413,-14.951669,162.846909,-1.417317,3.687190,0.041582,-33.948910,17.428467,22.127188
1016,101873028,164.309784,-15.355641,162.283142,-1.494401,2.790786,0.483232,-4.762990,11.899555,38.256310
1017,101889695,164.864929,-15.544227,161.586197,-1.421156,2.944360,1.217092,22.579958,-2.402900,42.116287
1018,101906362,165.607422,-15.437652,160.715042,-2.095634,2.991675,1.509206,31.010382,-21.631369,47.327465
1019,101923029,166.295563,-15.145267,159.599640,-2.074896,3.433672,1.106799,24.074446,-35.318878,58.611290
1020,101939696,167.132324,-14.869069,158.247192,-1.463880,3.664915,0.814198,29.642294,-36.790573,72.711525
1021,101956363,168.192230,-14.643451,156.678436,-2.300763,3.305626,0.276960,40.082851,-35.342930,86.257355
1022,101973030,169.142929,-14.255504,155.033447,-2.699462,3.215435,-0.365046,32.887711,-44.295158,89.368019
1023,101989697,169.765625,-13.658252,153.398911,-2.669230,3.350638,-0.219355,14.192408,-55.365562,87.229439
1024,102006364,170.112656,-12.986485,151.780304,-2.631166,3.193780,0.207061,-1.061854,-58.938210,86.213951
1025,102023031,170.383469,-12.359722,150.180847,-2.476184,2.840875,-0.002438,-4.303004,-55.691002,86.107147
1026,102039698,170.755722,-11.757096,148.624664,-1.863819,2.433034,-0.567715,3.333629,-53.424644,84.341827
1027,102056365,171.339920,-11.107131,147.125427,-1.032520,1.987183,-0.991344,17.728315,-55.059170,81.208626
1028,102073032,172.168518,-10.382086,145.712830,-0.500183,1.330842,-1.455325,34.422062,-57.827885,76.346222
1029,102089699,173.231522,-9.588681,144.461166,-0.196454,0.804828,-1.161761,51.264511,-59.460739,67.488220
1030,102106366,174.453751,-8.787814,143.407272,-0.078893,1.000781,-0.585295,63.739273,-57.323376,57.085659
1031,102123033,175.689056,-7.978032,142.515320,0.234647,1.523195,-0.227628,66.821022,-55.816723,48.751202
1032,102139700,176.945816,-7.137487,141.730042,0.087847,1.813665,0.127173,69.717186,-56.196796,43.541241
1033,102156367,178.450027,-6.270185,141.005066,-0.714868,1.179563,-0.241867,85.687027,-56.609867,41.248528
1034,102173034,-179.686050,-5.391919,140.391159,-1.039000,0.393620,-1.222310,108.604103,-55.977528,36.244202
1035,102189701,-177.691666,-4.443875,139.955582,-0.664981,0.476712,-1.873338,117.926865,-59.170067,27.505707
1036,102206368,-175.828018,-3.438456,139.654526,0.032442,0.958647,-1.725345,111.078667,-62.114765,21.577744
1037,102223035,-174.241287,-2.411117,139.392319,-0.065426,1.353474,-0.750336,94.905220,-62.957085,21.169340
1038,102239702,-172.889542,-1.461730,139.131393,-0.533565,0.919640,-0.235867,81.082687,-57.765354,22.113684
1039,102256369,-171.737427,-0.587584,138.948761,-0.297608,0.739790,-0.758310,69.437080,-53.432861,18.052666
1040,102273036,-170.701630,0.290758,138.873734,-0.262091,0.319006,-1.153342,62.643997,-54.320839,12.676942
1041,102289703,-169.656006,1.187538,138.940445,0.186533,-0.084499,-1.052155,63.191368,-56.629433,5.415937
1042,102306370,-168.510345,2.108057,139.129791,0.316642,-0.286700,-0.932574,68.916962,-59.308800,-0.506736
1043,102323037,-167.294434,3.029962,139.447647,-0.035791,-0.528890,-0.858087,72.603165,-61.001171,-6.850911
1044,102339704,-166.113464,3.963443,139.914078,-0.054273,-0.668129,-1.123725,69.650826,-63.849571,-14.115166
1045,102356371,-165.072968,4.874039,140.520477,0.404583,-0.717391,-1.400670,60.123814,-64.858391,-21.357147
1046,102373038,-164.169968,5.682019,141.213333,0.827835,-0.199298,-0.586657,50.852024,-60.627712,-26.874161
1047,102389705,-163.345123,6.370002,141.943237,1.065908,-0.105974,0.117407,45.392185,-54.712387,-30.084259
1048,102406372,-162.608658,6.968197,142.791595,1.655216,-0.536280,-0.716458,38.779533,-52.012409,-37.656513
1049,102423039,-161.892502,7.579012,143.793121,2.203079,-0.914104,-1.284530,35.869591,-55.952938,-45.421928
1050,102439706,-161.176697,8.172406,144.895218,1.585283,-1.546754,-1.939692,34.399284,-57.376682,-50.678406
1051,102456373,-160.438461,8.708323,146.076202,0.939544,-1.901198,-1.858875,34.405689,-56.251904,-55.454182
1052,102473040,-159.729950,9.144402,147.296677,-0.081319,-2.265837,-1.471878,31.655006,-52.068272,-58.934200
1053,102489707,-159.053116,9.463117,148.581039,-0.658657,-2.399201,-0.900343,28.649614,-47.480110,-64.280396
1054,102506374,-158.485870,9.714122,149.954453,-0.327581,-1.896049,-0.695405,20.794325,-46.264824,-70.116760
1055,102523041,-157.998230,9.997206,151.380875,-0.475508,-1.960695,-0.769946,15.086267,-49.824478,-71.849709
1056,102539708,-157.494171,10.342688,152.903366,-0.248152,-2.274054,-1.173592,14.580855,-56.019894,-75.202202
1057,102556375,-156.848251,10.777360,154.563065,0.358617,-1.985414,-1.331163,20.961563,-64.789993,-79.944847
1058,102573042,-155.982025,11.234479,156.284851,0.341340,-1.715963,-0.874806,32.695904,-68.467102,-81.800964
1059,102589709,-154.724060,11.709787,158.103821,0.665960,-1.349409,-0.532324,54.206436,-73.271072,-85.159668
1060,102606376,-153.016617,12.111462,159.970764,1.066722,-1.416969,-0.301505,79.755035,-72.645088,-87.633705
1061,102623043,-150.749420,12.427050,161.911606,1.781608,-1.323272,-0.347863,111.702637,-73.051689,-91.285156
1062,102639710,-148.295456,12.757821,164.015213,3.016023,-1.278994,-1.188034,120.129570,-82.290649,-95.948303
1063,102656377,-146.087540,13.189273,166.304962,4.338119,-0.974705,-1.776727,102.036194,-96.985939,-98.363136
1064,102673044,-144.274368,13.740048,168.678375,4.352414,-1.182521,-1.433959,76.040306,-108.860817,-94.703972
1065,102689711,-142.776291,14.296116,171.051483,3.802853,-1.909781,-0.421021,55.797169,-111.581909,-91.148743
1066,102706378,-141.378433,14.680163,173.282318,3.565211,-2.267802,0.357973,50.779198,-100.430374,-87.977341
1067,102723045,-139.999100,14.775601,175.124893,3.480716,-2.033491,0.843437,55.036476,-74.754097,-79.022308
1068,102739712,-138.786987,14.595059,176.431656,3.480890,-1.556092,1.036103,53.224453,-43.705044,-64.561363
1069,102756379,-138.033447,14.246288,177.191818,3.450659,-0.784177,1.264967,34.219055,-16.217297,-46.873192
1070,102773046,-137.942429,13.851097,177.427429,3.003139,-0.673937,1.842963,2.389690,5.908846,-26.017282
1071,102789713,-138.421768,13.463066,177.218079,2.729022,-0.553003,2.395741,-25.434540,22.978331,-6.390460
1072,102806380,-139.240509,13.117832,176.592590,2.823866,-0.312699,2.859575,-40.138279,37.136932,13.889686
1073,102823047,-140.089615,12.808870,175.588791,2.980759,-0.135697,3.416892,-37.073479,49.633606,32.765709
1074,102839714,-140.813889,12.559329,174.346863,3.697042,0.214421,3.355475,-26.727745,55.360821,46.541599
1075,102856381,-141.486664,12.435673,172.988358,4.552389,0.408558,2.671553,-22.350779,53.241470,57.332397
1076,102873048,-142.229309,12.503307,171.586014,4.791575,0.136918,2.112435,-26.001457,45.114071,67.120140
1077,102889715,-143.179504,12.798218,170.187256,4.332833,-0.253892,2.020817,-38.230633,33.127441,75.852661
1078,102906382,-144.388107,13.296305,168.801544,3.499222,-0.945481,2.250671,-53.332581,21.350855,82.982635
1079,102923049,-145.756393,13.903648,167.384705,2.620973,-2.045136,2.437791,-61.685818,15.055641,88.584160
1080,102939716,-147.147400,14.523981,165.872452,2.105394,-3.049039,2.022696,-60.758930,15.230947,93.855400
1081,102956383,-148.472198,15.093043,164.210297,1.656662,-3.467750,1.447499,-53.578529,20.126020,99.767853
1082,102973050,-149.713455,15.578291,162.415054,1.132372,-3.330039,0.915676,-45.574707,26.047550,104.072098
1083,102989717,-150.967667,15.994377,160.526367,0.172056,-3.250547,0.578870,-44.014462,29.950434,107.110245
1084,103006384,-152.400986,16.376667,158.669250,0.073816,-2.725439,0.121904,-54.531952,28.255596,105.094398
1085,103023051,-153.983231,16.739222,156.839996,0.385721,-2.530657,-0.405422,-63.250866,25.728439,103.729614
1086,103039718,-155.553513,17.028433,154.993790,0.739027,-2.666065,-0.871546,-61.641098,27.189154,103.310287
1087,103056385,-156.970322,17.196550,153.107147,1.148374,-2.710025,-1.339908,-51.294930,32.028313,103.133179
1088,103073052,-158.136261,17.217388,151.221237,1.858243,-2.733753,-1.840715,-36.077515,37.836285,100.425301
1089,103089719,-159.079376,17.060022,149.244492,2.507083,-2.641050,-2.292940,-21.226164,47.864307,102.139343
1090,103106386,-159.869339,16.723383,147.307648,2.957563,-2.438925,-2.387201,-13.214988,55.653404,97.113464
1091,103123053,-160.628204,16.222334,145.499741,3.173609,-1.925032,-2.116357,-14.345431,61.211323,87.800209
1092,103139720,-161.380768,15.538725,143.879013,3.300160,-1.598570,-1.495446,-18.105616,67.009079,75.149635
1093,103156387,-162.090759,14.669661,142.470932,3.176198,-1.685396,-0.926850,-20.127068,72.878036,61.181442
1094,103173054,-162.888458,13.665081,141.275436,2.384684,-2.063267,-0.784272,-29.836094,76.222473,48.260746
1095,103189721,-163.828552,12.637165,140.293823,1.861576,-2.530259,-0.947914,-42.527664,73.346611,37.366837
1096,103206388,-164.940460,11.677005,139.490311,1.276634,-2.973121,-1.045690,-56.081352,66.017197,29.972591
1097,103223055,-166.119507,10.746917,138.834900,0.706834,-3.358474,-1.025180,-62.618336,61.539013,23.512455
1098,103239722,-167.223495,9.753924,138.321503,0.697870,-3.610090,-1.169744,-60.288528,62.842583,15.882313
1099,103256389,-168.166840,8.543475,137.842407,0.977253,-3.387603,-1.786072,-51.572163,74.902641,12.386176
1100,103273056,-169.002747,7.128489,137.446686,1.387638,-2.756872,-2.660827,-46.466618,85.786415,6.406011
1101,103289723,-169.884338,5.613664,137.164062,1.596197,-1.955937,-3.651546,-50.569008,90.366516,0.081996
1102,103306390,-170.905548,4.123778,137.095169,1.857445,-1.114453,-4.446372,-60.479462,86.768539,-10.672994
1103,103323057,-172.068359,2.653678,137.320419,1.874817,-0.638526,-5.040668,-70.126610,83.189812,-26.200359
1104,103339724,-173.390228,1.132820,137.979492,1.772248,0.470231,-5.685507,-80.179710,83.477242,-50.536522
1105,103356391,-174.851089,-0.462177,139.127411,1.214861,1.975069,-5.503180,-87.615295,86.106377,-78.080772
1106,103373058,-176.541016,-2.120573,140.758438,0.109237,3.803119,-5.079917,-98.751282,89.839973,-104.778313
1107,103389725,-178.500519,-3.812922,142.905640,0.129150,5.642625,-4.551434,-110.461395,93.821228,-132.660126
1108,103406392,179.533905,-5.525096,145.585022,-0.523872,6.744277,-4.387108,-104.402054,99.195648,-160.855362
1109,103423059,177.603683,-7.225428,148.794495,-4.946112,6.715308,-2.948193,-93.974815,104.649757,-188.463364
1110,103439726,175.187637,-8.633494,152.660690,-9.266073,7.341734,0.136954,-112.498413,96.593597,-223.673935
1111,103456393,171.838516,-9.561157,156.743561,-9.906476,7.889398,3.103989,-161.745255,80.407402,-233.742737
1112,103473060,167.766479,-9.891137,160.151703,-10.236986,5.429998,3.753051,-209.330978,52.888844,-194.548248
1113,103489727,163.854080,-9.718000,162.170044,-9.738824,-1.041377,1.432540,-213.728607,16.830769,-117.916321
1114,103506394,161.507492,-9.455573,162.865051,-7.620906,-4.408504,-0.821404,-133.510925,-5.199842,-43.619789
1115,103523061,161.049789,-9.441292,162.587341,-5.084642,-1.772095,1.066918,-29.901367,-8.530460,15.604006
1116,103539728,161.884933,-9.625751,161.378738,-3.196216,2.299527,3.723351,38.374962,-14.706394,71.621277
1117,103556395,163.032608,-9.777465,159.735626,-2.086426,4.771817,3.791416,52.532818,-23.100365,95.686409
1118,103573062,163.819199,-9.791937,158.258789,-0.713103,6.274486,3.270907,32.453323,-26.589014,84.212639
1119,103589729,164.042816,-9.736596,157.131104,-0.569889,6.448480,2.825714,2.300218,-24.179193,63.422672
1120,103606396,163.796646,-9.742605,156.347290,-0.758007,5.605393,1.980310,-22.328625,-15.046390,44.899414
1121,103623063,163.437256,-9.873925,155.849731,-0.064806,4.892050,1.131194,-26.223211,-3.312573,30.700342
1122,103639730,163.351440,-10.098879,155.511749,-0.058090,3.905482,1.116703,-8.211373,4.638105,23.247656
1123,103656397,163.568756,-10.300879,155.244644,-0.556632,3.334141,1.596558,10.676512,4.527507,18.820250
1124,103673064,163.925461,-10.382272,154.862335,-1.634367,2.925621,1.974621,17.774763,-4.240656,23.276745
1125,103689731,164.332260,-10.346085,154.121704,-3.068863,2.457387,1.629075,16.916895,-16.674463,41.689323
