sep=,
DeviceTag:,DOT1
FirmwareVersion:,3.0.0
AppVersion:,2023.6.0
SyncStatus:,Synced
OutputRate:,60Hz
FilterProfile:,Dynamic
Measurement Mode:,Custom modes - custom mode1
StartTime: ,2026-03-17_10:06:07_917 GMT+1
© Movella Technologies B. V. 2005-2026

PacketCounter,SampleTimeFine,Euler_X,Euler_Y,Euler_Z,FreeAcc_X,FreeAcc_Y,FreeAcc_Z,Gyr_X,Gyr_Y,Gyr_Z
1,218750711,0.326296,-11.186085,142.561234,-0.032163,-0.072659,-0.340377,-13.966232,-8.248713,14.997511
2,218767378,0.031386,-11.321300,142.811142,-0.010234,-0.099620,-0.367721,-15.680957,-8.120266,15.057333
3,218784045,-0.299591,-11.455626,143.061478,0.066599,-0.188662,-0.452669,-17.799904,-8.148813,15.057502
4,218800712,-0.643410,-11.593732,143.291397,0.193079,-0.027436,-0.679881,-18.781450,-8.453478,13.791670
5,218817379,-0.939384,-11.740720,143.486588,0.233890,0.277971,-0.897612,-16.295017,-9.034753,11.703696
6,218834046,-1.137248,-11.885918,143.659729,0.203620,0.382777,-0.998337,-10.701880,-8.944603,10.091778
7,218850713,-1.267439,-12.021570,143.798126,0.060872,0.302362,-0.995288,-6.989723,-8.367623,8.325048
8,218867380,-1.401634,-12.141602,143.906189,-0.096096,0.089533,-0.877129,-7.649506,-7.396248,6.253556
9,218884047,-1.584216,-12.234914,143.987122,-0.118473,-0.039602,-0.872974,-10.884263,-5.768764,4.682446
10,218900714,-1.806284,-12.311073,144.045624,-0.040260,-0.108955,-0.903845,-13.532645,-4.716608,3.375852
11,218917381,-2.039675,-12.382451,144.084656,0.051657,-0.210391,-0.899206,-14.457354,-4.404517,2.225623
12,218934048,-2.235262,-12.449527,144.117081,0.089382,-0.041344,-0.863867,-12.272152,-4.140551,1.829856
13,218950715,-2.334424,-12.511457,144.144058,0.070667,0.047756,-0.866628,-6.554675,-3.823375,1.514242
14,218967382,-2.322694,-12.563888,144.167648,0.153373,0.028806,-0.929873,0.056508,-3.247101,1.335235
15,218984049,-2.225516,-12.594501,144.181519,-0.132026,-0.111928,-1.056684,5.058002,-1.915343,0.821956
16,219000716,-2.121845,-12.599730,144.193069,-0.312470,-0.090776,-1.011380,5.416759,-0.386483,0.745477
17,219017383,-2.048985,-12.585550,144.212296,-0.177339,0.019334,-0.805272,3.668603,0.762970,1.240289
18,219034050,-1.996303,-12.562592,144.220474,0.138893,0.169207,-0.417114,2.312769,1.313656,0.609038
19,219050717,-1.930370,-12.532511,144.218567,0.324665,0.229026,-0.342399,2.977098,1.761853,0.033636
20,219067384,-1.840018,-12.504912,144.218063,0.108968,0.054492,-0.423521,4.461636,1.610341,0.107708
21,219084051,-1.785167,-12.479338,144.235367,-0.132762,-0.044898,-0.443641,2.562941,1.456050,1.143754
22,219100718,-1.783430,-12.447967,144.273270,-0.155366,-0.016246,-0.547493,-0.357643,1.767116,2.360498
23,219117385,-1.784650,-12.425602,144.325241,0.063455,0.104519,-0.429226,-0.354236,1.201537,3.168489
24,219134052,-1.794534,-12.413746,144.389771,0.037303,0.016657,-0.288882,-0.712533,0.548567,3.884685
25,219150719,-1.823636,-12.419818,144.459320,0.059280,-0.082479,-0.209616,-1.801123,-0.536932,4.143591
26,219167386,-1.868187,-12.452038,144.519989,0.091909,-0.076892,-0.130711,-2.841268,-2.090547,3.572709
27,219184053,-1.920791,-12.499754,144.579651,-0.013153,-0.035492,-0.298645,-3.334953,-3.021044,3.480427
28,219200720,-2.004371,-12.562018,144.647583,-0.068551,-0.045147,-0.354323,-5.082291,-3.913596,3.930980
29,219217387,-2.098300,-12.633050,144.721664,-0.045047,0.046971,-0.433617,-5.618071,-4.457725,4.265329
30,219234054,-2.180128,-12.710838,144.806671,-0.103366,-0.016212,-0.418489,-4.742576,-4.893063,4.880596
31,219250721,-2.276282,-12.789301,144.883621,-0.017080,0.017286,-0.419235,-5.702131,-4.921636,4.398605
32,219267388,-2.372405,-12.873567,144.945450,0.048209,0.058292,-0.457051,-5.895226,-5.240680,3.491031
33,219284055,-2.461403,-12.950828,145.003647,-0.007382,0.007614,-0.489350,-5.510971,-4.817353,3.286962
34,219300722,-2.566152,-13.018538,145.059143,0.018249,-0.060464,-0.584545,-6.487992,-4.242604,3.145003
35,219317389,-2.675869,-13.086168,145.104614,0.107401,0.047923,-0.654571,-6.917965,-4.216658,2.551428
36,219334056,-2.766525,-13.154956,145.149414,0.069113,-0.004593,-0.560318,-5.779840,-4.288207,2.500908
37,219350723,-2.841853,-13.220558,145.194794,0.043723,-0.038604,-0.543683,-4.848895,-4.102745,2.537354
38,219367390,-2.903930,-13.285222,145.229980,0.044484,0.046803,-0.521272,-4.191019,-4.019196,1.939656
39,219384057,-2.946646,-13.341700,145.258987,-0.047921,0.053415,-0.590160,-3.112314,-3.511719,1.599788
40,219400724,-2.978528,-13.387875,145.296005,-0.091235,-0.024991,-0.676719,-2.349222,-2.919246,2.097123
41,219417391,-3.026253,-13.428246,145.341446,-0.060836,-0.060224,-0.690886,-3.181405,-2.597973,2.602487
42,219434058,-3.087480,-13.465543,145.385864,-0.032446,-0.010172,-0.626778,-4.003624,-2.412883,2.551595
43,219450725,-3.158595,-13.498874,145.432877,0.002188,0.010299,-0.401479,-4.559394,-2.186377,2.710086
44,219467392,-3.210098,-13.534110,145.462143,0.137623,0.094878,-0.437817,-3.629282,-2.245261,1.669276
45,219484059,-3.212710,-13.567257,145.482819,0.007142,0.159762,-0.661426,-0.815303,-2.092634,1.174105
46,219500726,-3.191900,-13.599207,145.513809,-0.126701,0.039853,-0.682064,0.736756,-2.053729,1.779743
47,219517393,-3.186149,-13.626600,145.551880,-0.137158,-0.155302,-0.598834,-0.066017,-1.802955,2.207091
48,219534060,-3.229750,-13.654831,145.588211,-0.090226,-0.156455,-0.538729,-3.050946,-1.847982,2.102040
49,219550727,-3.294350,-13.682549,145.621231,-0.007210,0.119062,-0.425193,-4.356951,-1.807860,1.909408
50,219567394,-3.322782,-13.703459,145.650620,0.084290,0.098331,-0.514965,-2.237590,-1.389130,1.717978
51,219584061,-3.335095,-13.723660,145.670502,-0.039581,-0.021658,-0.543851,-1.404178,-1.314738,1.169674
52,219600728,-3.364126,-13.744871,145.695496,-0.051537,-0.066478,-0.559835,-2.334291,-1.392767,1.460353
53,219617395,-3.393537,-13.770996,145.723557,-0.002124,-0.164333,-0.568707,-2.312494,-1.697981,1.622558
54,219634062,-3.421554,-13.805803,145.756393,-0.029007,-0.057659,-0.494000,-2.160201,-2.235284,1.866788
55,219650729,-3.436309,-13.849967,145.788864,0.043552,-0.091124,-0.382455,-1.368359,-2.794999,1.810632
56,219667396,-3.444261,-13.896685,145.828613,0.013512,-0.082175,-0.388602,-0.853659,-2.973622,2.224905
57,219684063,-3.466619,-13.942397,145.873779,-0.059556,-0.136023,-0.486473,-1.637740,-2.933025,2.542873
58,219700730,-3.496907,-13.991898,145.914948,-0.046810,-0.010129,-0.541410,-2.170280,-3.146508,2.292631
59,219717397,-3.516583,-14.044770,145.962982,-0.024474,0.047624,-0.512511,-1.431199,-3.373667,2.677981
60,219734064,-3.526721,-14.097651,146.009262,-0.012665,0.043491,-0.422323,-0.881692,-3.368262,2.575094
61,219750731,-3.530145,-14.152122,146.048859,0.031161,0.099460,-0.443477,-0.574006,-3.439440,2.179967
62,219767398,-3.518142,-14.202183,146.087769,-0.031428,0.063125,-0.461172,0.344126,-3.172172,2.156788
63,219784065,-3.518842,-14.243301,146.132385,-0.059940,0.049278,-0.500865,-0.331889,-2.656664,2.520411
64,219800732,-3.541349,-14.277172,146.180878,-0.055709,0.119055,-0.531311,-1.581175,-2.236169,2.770917
65,219817399,-3.570413,-14.306833,146.229401,-0.025314,0.218669,-0.483232,-1.972409,-1.985100,2.787091
66,219834066,-3.602224,-14.329546,146.286575,0.019249,0.185678,-0.406626,-2.006639,-1.601600,3.314507
67,219850733,-3.638934,-14.350045,146.345337,0.057646,0.173102,-0.412566,-2.275419,-1.476149,3.413692
68,219867400,-3.675148,-14.370404,146.417786,-0.018130,0.216066,-0.446056,-2.040436,-1.520613,4.205305
69,219884067,-3.698289,-14.389356,146.506790,-0.080184,0.235702,-0.440067,-1.007399,-1.499457,5.169904
70,219900734,-3.718088,-14.399201,146.616501,-0.157011,0.248032,-0.352189,-0.496118,-1.033140,6.406064
71,219917401,-3.745941,-14.403383,146.758331,-0.217974,0.263643,-0.203362,-0.498884,-0.817340,8.289572
72,219934068,-3.780384,-14.406111,146.940598,-0.235061,0.394567,-0.109493,-0.290307,-0.888146,10.638309
73,219950735,-3.821173,-14.397533,147.167130,-0.313769,0.686758,-0.067425,-0.010207,-0.387444,13.251143
74,219967402,-3.846896,-14.379535,147.443848,-0.394427,1.321918,0.113824,1.639579,-0.024358,16.198439
75,219984069,-3.870136,-14.330256,147.781540,-0.420012,2.150101,0.560790,2.688409,1.605438,19.863361
76,220000736,-3.953556,-14.252713,148.184189,-0.616400,3.126894,1.386713,0.021688,3.025001,23.752802
77,220017403,-4.209881,-14.130593,148.662064,-1.348154,4.377679,2.436996,-9.281483,5.315606,28.325819
78,220034070,-4.756170,-13.948934,149.254089,-2.336790,5.610331,3.505015,-25.083788,8.166717,35.282848
79,220050737,-5.745837,-13.699105,149.929993,-3.088014,6.618216,4.186921,-50.604645,11.328588,40.661880
80,220067404,-7.224347,-13.388737,150.591354,-3.841820,8.966819,3.809850,-80.321365,14.166047,40.509243
81,220084071,-8.957175,-12.952201,151.077988,-4.195693,12.807040,2.964231,-98.206749,21.969315,31.905907
82,220100738,-10.687444,-12.279676,151.257507,-5.336485,15.769374,2.003830,-102.330849,38.029694,17.314949
83,220117405,-12.445041,-11.236313,151.018997,-6.547750,16.582165,0.945731,-109.211014,64.232681,-1.098514
84,220134072,-14.252468,-9.702131,150.139725,-5.818990,17.015009,-1.401803,-118.839500,101.667351,-29.143759
85,220150739,-15.918176,-7.719718,148.258820,-3.571314,18.599707,-3.921078,-117.807365,144.030731,-76.668732
86,220167406,-17.175482,-5.281263,145.154465,-0.781526,19.017914,-6.317945,-97.261726,193.116745,-135.648224
87,220184073,-18.162216,-2.273461,140.828262,1.724838,14.997415,-8.527244,-77.006958,250.718246,-191.941132
88,220200740,-19.473005,1.373568,135.456406,5.025843,6.688116,-8.887219,-81.828712,310.945435,-233.723663
89,220217407,-21.630816,5.541802,129.131683,9.999242,-3.381510,-7.278440,-107.176308,366.955231,-266.223785
90,220234074,-24.317768,9.727331,121.677635,18.805378,-16.430721,-2.696604,-102.251862,404.195709,-310.129974
91,220250741,-26.475124,12.757108,113.389709,23.176693,-40.322029,6.293266,-33.017357,373.325653,-362.609161
92,220267408,-27.836081,13.663234,105.694725,0.797766,-50.668179,11.400179,23.171844,253.557465,-374.980164
93,220284075,-28.268658,13.577936,101.249886,-24.772535,-29.268427,3.745948,36.020718,117.403740,-231.034622
94,220300742,-28.687662,13.210543,101.024437,-9.006730,-13.149173,-6.770407,-22.916979,-13.111296,-22.012436
95,220317409,-27.254349,12.762971,104.078278,9.144735,-5.861141,-4.380690,43.863556,-107.482086,145.141891
96,220334076,-22.911219,12.517362,109.720139,2.311740,-12.341685,0.448537,185.382874,-153.424713,292.986481
97,220350743,-17.980467,11.331169,115.617210,-2.579500,-22.253716,2.233122,221.536514,-187.662979,299.624146
98,220367410,-15.235601,9.710358,121.156769,-3.671732,-23.005991,-1.806782,102.887573,-186.639633,285.417938
99,220384077,-17.058180,7.846241,126.168625,-0.370839,-22.383543,-2.761285,-156.195679,-190.173584,254.421524
100,220400744,-21.364857,5.999156,131.002045,8.542019,-15.359633,-2.651230,-294.253845,-199.551987,235.485092
101,220417411,-24.625973,4.289663,135.985580,12.809551,-7.494255,-3.754923,-223.441132,-210.924118,234.121323
102,220434078,-25.578037,2.888022,141.217514,11.530899,-0.706229,-3.462410,-77.844772,-209.218506,248.031799
103,220450745,-25.041069,1.765227,146.435089,7.889176,1.740668,-2.318956,18.366508,-194.785492,253.958817
104,220467412,-24.522467,0.882789,151.545441,3.969755,0.710741,-1.418656,22.882933,-176.728714,256.106537
105,220484079,-24.575043,0.048914,156.440201,2.249370,-0.513183,-1.382170,-6.679962,-167.684784,246.336975
106,220500746,-24.865479,-0.708510,160.853470,2.184492,1.668052,-2.386295,-17.047316,-152.171234,221.522110
107,220517413,-25.190382,-1.542844,164.671204,0.624070,6.142282,-1.962434,-16.147648,-142.396790,186.345108
108,220534080,-25.034428,-2.288179,167.965378,-2.098861,11.053810,-1.182632,14.806171,-124.465019,159.904755
109,220550747,-24.032511,-2.792432,170.724030,-3.759484,13.673638,-1.422676,66.302994,-96.307037,137.893494
110,220567414,-22.087296,-3.167437,172.985031,-4.553209,16.155245,-2.261984,122.642212,-73.875000,115.884171
111,220584081,-19.598694,-3.551064,174.590378,-5.056839,15.101637,-1.949952,153.877060,-55.812202,81.729172
112,220600748,-17.407495,-3.788894,175.248093,-2.830061,11.247004,0.862631,132.960068,-26.099321,32.879436
113,220617415,-16.286797,-3.913075,174.985260,-1.456225,9.291202,1.583686,65.174423,-2.628379,-17.154892
114,220634082,-16.018604,-3.925170,173.940994,-1.573842,8.023622,0.761019,10.825609,16.641336,-60.178707
115,220650749,-16.043671,-3.902262,172.507950,-0.909486,5.776978,0.668008,-8.335191,24.964344,-81.999664
116,220667416,-16.103048,-3.952091,170.935272,-0.762293,2.832903,1.920164,-10.972135,23.149931,-91.220840
117,220684083,-16.195864,-4.038401,169.537292,-1.106239,0.594519,2.414007,-12.351064,18.261683,-81.746582
118,220700750,-16.410379,-4.171785,168.404526,-1.558007,-0.467150,1.751751,-18.672167,11.315242,-67.245361
119,220717417,-16.689219,-4.339849,167.537979,-2.066530,-0.464764,0.913615,-21.524015,5.073402,-52.505985
120,220734084,-16.927828,-4.508608,166.929062,-2.075005,-0.055944,0.317027,-18.071341,0.816032,-37.730103
121,220750751,-17.141361,-4.640597,166.522675,-1.690180,0.017719,0.226264,-15.692144,-0.471480,-25.489647
122,220767418,-17.396587,-4.713873,166.267944,-1.208720,0.118481,0.011454,-17.495621,0.308102,-15.781219
123,220784085,-17.730474,-4.740384,166.103195,-0.741130,0.654625,-0.349144,-21.782326,1.443733,-9.800591
124,220800752,-18.095545,-4.703302,165.985168,-0.494177,1.021683,-0.743040,-23.420328,4.277554,-5.959319
125,220817419,-18.466131,-4.624611,165.863342,-0.257453,0.955808,-1.060280,-23.759481,6.760468,-5.364822
126,220834086,-18.804125,-4.543795,165.674438,0.137716,0.572905,-1.108060,-22.112877,8.198740,-9.085037
127,220850753,-19.097067,-4.472553,165.467422,-0.104819,0.654309,-0.763275,-19.478971,8.058136,-10.250339
128,220867420,-19.290337,-4.374233,165.291168,-0.023362,0.236079,-0.473136,-13.335456,9.033165,-7.946514
129,220884087,-19.448364,-4.289257,165.119278,0.144750,0.241223,-0.527548,-11.184501,8.217119,-7.938983
130,220900754,-19.554117,-4.223627,164.959869,0.071994,0.382151,-0.848817,-7.977234,6.892670,-7.603941
131,220917421,-19.584816,-4.189373,164.815308,-0.131370,0.070278,-0.859130,-3.399806,4.831332,-7.389625
132,220934088,-19.603180,-4.168632,164.696808,-0.401640,-0.419188,-0.671305,-2.540588,3.548634,-6.190296
133,220950755,-19.718298,-4.162179,164.592880,-0.209280,-0.396715,-0.285695,-8.281152,2.456163,-5.653468
134,220967422,-19.891123,-4.167541,164.487411,0.018675,0.193454,-0.274009,-11.750486,1.835388,-5.973243
135,220984089,-20.025043,-4.198701,164.395004,0.112283,0.441564,-0.531843,-9.360050,0.130939,-5.763679
136,221000756,-20.078524,-4.255143,164.295868,-0.072037,0.333204,-0.631269,-4.566950,-1.146873,-6.659469
137,221017423,-20.116409,-4.303424,164.212387,-0.205522,-0.077347,-0.544353,-3.565685,-1.002622,-5.613497
138,221034090,-20.206911,-4.338550,164.143539,-0.187012,-0.230053,-0.427690,-6.660173,-0.556462,-4.520014
139,221050757,-20.320148,-4.357430,164.137848,0.035133,-0.030311,-0.322350,-7.738624,-0.942138,-0.638666
140,221067424,-20.366783,-4.383110,164.149002,0.166292,0.258583,-0.387087,-3.664973,-1.673905,0.163095
141,221084091,-20.329187,-4.412681,164.171036,0.161025,0.230681,-0.428049,1.439440,-2.118862,0.692420
142,221100758,-20.302498,-4.435041,164.188828,0.023127,0.076221,-0.514655,0.766185,-1.624857,0.606861
143,221117425,-20.365469,-4.434170,164.201538,0.107666,0.078238,-0.391779,-4.636091,-0.211523,0.804117
144,221134092,-20.461193,-4.423377,164.189529,0.313293,0.404486,-0.357307,-6.715074,0.861131,-0.373766
145,221150759,-20.495440,-4.430611,164.152588,0.316011,0.464675,-0.447251,-3.141321,0.369854,-2.147394
146,221167426,-20.467102,-4.430841,164.116638,0.043127,0.109068,-0.555939,0.618643,0.743261,-1.946002
147,221184093,-20.458378,-4.413969,164.095734,0.005636,-0.073522,-0.478905,-0.488178,1.389393,-0.743447
148,221200760,-20.498409,-4.370731,164.087402,-0.017518,-0.059627,-0.459128,-3.354841,2.608968,0.513848
149,221217427,-20.562725,-4.312613,164.082367,0.081647,0.028617,-0.573808,-4.796683,3.375427,1.014974
150,221234094,-20.606524,-4.261617,164.078293,0.165435,0.109765,-0.470402,-3.560716,2.954572,0.921603
151,221250761,-20.598078,-4.229891,164.065201,0.176017,0.161537,-0.446377,-0.465549,2.061944,0.010328
152,221267428,-20.572420,-4.207745,164.054199,0.019676,0.162496,-0.556364,0.576920,1.479883,-0.074904
153,221284095,-20.580568,-4.178030,164.044144,-0.007018,0.071845,-0.639725,-1.446644,1.885921,0.136509
154,221300762,-20.612528,-4.144128,164.020035,0.123882,0.202622,-0.635467,-2.935882,2.416424,-0.560163
155,221317429,-20.621328,-4.115154,163.973724,0.191970,0.301593,-0.651894,-1.641953,2.608097,-1.907557
156,221334096,-20.583660,-4.087381,163.916473,0.129794,0.210033,-0.625168,1.101942,2.770917,-2.547452
157,221350763,-20.552284,-4.069657,163.862381,0.055429,0.011313,-0.619975,0.739125,2.138116,-2.582682
158,221367430,-20.559965,-4.055381,163.814957,0.053215,-0.046498,-0.582314,-1.575693,1.803973,-2.282604
159,221384097,-20.586731,-4.050165,163.774414,0.134350,-0.052101,-0.487482,-2.690627,1.151707,-2.088319
160,221400764,-20.604597,-4.058428,163.734543,0.203315,0.040150,-0.394011,-2.153836,0.380675,-2.333701
161,221417431,-20.585815,-4.080748,163.702347,0.228862,0.145428,-0.334619,0.077664,-0.570049,-2.201015
162,221434098,-20.523180,-4.112047,163.680405,0.072752,0.131651,-0.442556,2.751540,-1.292020,-1.814211
163,221450765,-20.465935,-4.135647,163.673492,-0.150466,-0.011699,-0.482538,2.492583,-1.176033,-0.808964
164,221467432,-20.462894,-4.139576,163.684631,-0.183181,0.019281,-0.427197,-0.681874,-0.448197,0.616632
165,221484099,-20.517838,-4.132026,163.706512,-0.019544,0.133521,-0.290177,-4.114168,-0.027534,1.458714
166,221500766,-20.568962,-4.131069,163.723099,0.156910,0.401482,-0.230267,-3.908306,-0.288284,1.024335
167,221517433,-20.541384,-4.146914,163.731445,0.229290,0.495519,-0.307439,0.778825,-1.059021,0.207610
168,221534100,-20.480206,-4.168538,163.736191,-0.013186,0.256004,-0.439679,2.780163,-1.308361,-0.113874
169,221550767,-20.464897,-4.181453,163.741699,-0.122277,0.198133,-0.399676,0.030985,-0.834615,0.112049
170,221567434,-20.487587,-4.191376,163.743576,-0.056270,0.319428,-0.337481,-2.264534,-0.590539,-0.027995
171,221584101,-20.504362,-4.202611,163.731659,0.056916,0.376869,-0.289355,-1.969886,-0.374509,-0.830210
172,221600768,-20.511621,-4.229441,163.722534,0.161898,0.318238,-0.268813,-1.386646,-1.309244,-1.000957
173,221617435,-20.490431,-4.261717,163.719650,0.121142,0.431172,-0.388502,0.348147,-1.746261,-0.765653
174,221634102,-20.461514,-4.301144,163.718277,-0.082814,0.598774,-0.542372,0.818063,-2.179923,-0.830402
175,221650769,-20.433849,-4.332913,163.720169,-0.357750,0.683530,-0.567068,0.758181,-1.818412,-0.484848
176,221667436,-20.427114,-4.336392,163.733780,-0.609339,0.812095,-0.620993,-0.443945,-0.471991,0.764392
177,221684103,-20.462551,-4.315763,163.751465,-0.693590,1.033723,-0.604065,-2.955693,0.798380,1.498990
178,221700770,-20.565960,-4.254803,163.778641,-0.720984,1.308871,-0.332952,-6.991513,2.864941,2.879412
179,221717437,-20.731995,-4.159419,163.805481,-0.569099,1.871229,0.004062,-10.751781,4.798855,3.596211
180,221734104,-20.948067,-4.049284,163.802689,-0.597826,2.702484,0.401440,-13.882977,6.245681,2.270408
181,221750771,-21.287264,-3.926816,163.712997,-0.968386,4.063869,0.922283,-21.631643,8.800059,-2.284375
182,221767438,-21.802578,-3.766349,163.501938,-1.552841,5.661273,1.536235,-32.670120,13.608326,-8.140983
183,221784105,-22.477510,-3.516088,163.117508,-2.199398,7.151445,2.236050,-42.859272,22.598694,-15.586391
184,221800772,-23.344278,-3.224651,162.443924,-2.710389,9.433491,2.316883,-55.276257,31.830437,-30.276625
185,221817439,-24.275736,-2.867276,161.415100,-3.569080,12.234640,1.690100,-60.055267,44.523483,-47.659222
186,221834106,-25.122112,-2.421249,159.997513,-4.283667,14.829556,1.305172,-55.586464,59.840675,-65.927475
187,221850773,-25.642807,-1.781720,158.157318,-4.587152,16.680260,1.044110,-36.162689,81.993416,-83.153297
188,221867440,-25.636454,-0.875040,155.715057,-3.881388,19.357761,-0.250566,-3.883885,112.466026,-108.445961
189,221884107,-25.111216,0.356757,152.457230,-2.550107,21.085569,-2.371456,29.760832,150.569977,-144.854919
190,221900774,-24.512917,2.055646,148.229340,-0.534517,19.668779,-4.763221,40.367695,198.970245,-187.355392
191,221917441,-24.554043,4.160869,142.793350,2.114995,14.636411,-6.312352,14.314651,249.725220,-242.914444
192,221934108,-25.796038,6.583098,136.183090,6.142708,7.023639,-6.691412,-38.253105,298.957520,-294.513519
193,221950775,-28.390816,9.087468,128.453812,10.665775,-2.152513,-4.392355,-93.230782,342.344818,-339.509613
194,221967442,-31.679033,11.416821,119.451965,18.381933,-16.745953,0.494119,-101.597572,386.859100,-390.207031
195,221984109,-34.302116,12.645679,109.586288,25.038668,-45.707962,8.365366,-34.486755,376.969971,-445.395233
196,222000776,-34.695465,11.731896,101.390602,4.798938,-53.380951,6.849310,79.386307,227.166595,-427.007599
197,222017443,-32.125809,11.068454,97.044380,-19.715792,-25.177658,-1.125572,204.766785,107.573120,-235.235901
198,222034110,-28.608320,11.648854,97.995018,-13.863300,-8.367345,-9.781945,198.907593,1.776957,65.937111
199,222050777,-24.019648,12.155138,102.879288,-7.935750,-13.314960,-1.357291,213.808090,-99.918365,270.606445
200,222067444,-19.826025,11.637537,108.063515,-5.036275,-23.060488,5.182610,186.410324,-142.452087,270.868622
201,222084111,-19.904558,10.078581,111.907593,-2.919609,-21.504999,-0.424781,-49.085968,-164.929260,181.328400
202,222100778,-23.665789,8.313384,115.918571,0.715281,-15.704342,-1.745830,-264.961670,-186.548706,181.413162
203,222117445,-27.667725,6.930856,119.931419,6.502991,-10.835803,-1.553604,-272.886353,-178.181259,179.279388
204,222134112,-29.485350,5.849958,124.240265,8.876987,-6.928279,-3.466586,-138.725708,-179.871353,194.676865
205,222150779,-29.197205,5.285110,129.123581,7.408340,-5.007221,-2.334617,-12.099292,-172.460220,237.648270
206,222167446,-28.205294,5.132159,134.207642,4.695524,-5.466695,-0.784144,30.828735,-153.976425,262.092712
207,222184113,-27.748653,5.002740,139.040222,3.460041,-5.127909,-0.863144,0.716440,-142.866348,252.349869
208,222200780,-28.015711,4.654870,143.453705,3.318478,-2.920624,-1.104324,-39.270569,-141.882202,223.518768
209,222217447,-28.595997,4.079149,147.533463,3.532497,0.483921,-0.220335,-54.410629,-146.178207,198.560608
210,222234114,-29.102333,3.323794,151.415161,3.043865,2.791392,0.187936,-46.375187,-151.863419,181.755112
211,222250781,-29.356703,2.567212,155.144104,1.833143,3.965540,-0.407310,-27.724207,-148.745255,172.875473
212,222267448,-29.455462,1.867752,158.558640,0.417643,5.003527,-1.731361,-14.821957,-137.098694,157.789703
213,222284115,-29.417547,1.282370,161.706802,-0.901701,5.984918,-2.372013,-3.887502,-123.406647,147.235184
214,222300782,-29.004034,0.914722,164.596954,-1.311138,7.673118,-1.076851,20.513805,-103.886505,140.618103
215,222317449,-28.050261,0.636163,167.215073,-1.104643,8.895805,0.675460,54.126514,-89.717201,130.078934
216,222334116,-26.533606,0.304014,169.575699,-0.687825,10.618117,0.549887,88.864395,-82.669792,116.792984
217,222350783,-24.448254,-0.017531,171.365662,-3.245718,14.347365,-0.761196,123.889542,-63.651714,88.707314
218,222367450,-22.588150,-0.440483,172.250168,-3.126467,13.662207,-1.490343,110.873566,-44.458363,38.603882
219,222384117,-21.669237,-0.814783,172.365601,-1.827984,10.162331,-0.677186,54.279575,-23.420193,-1.974187
220,222400784,-21.543533,-1.164638,171.709518,0.006083,8.464844,0.447929,5.939582,-5.028525,-44.250809
221,222417451,-21.678202,-1.369341,170.621231,-0.192257,4.405964,-0.341508,-10.438622,12.620149,-65.144203
222,222434118,-21.886707,-1.378036,169.520920,-1.031406,2.038157,-0.695329,-15.004213,24.002144,-61.407207
223,222450785,-21.820734,-1.277301,168.619171,-1.099286,0.282260,-0.183148,1.794207,25.740768,-47.880943
224,222467452,-21.623211,-1.114920,168.022415,-1.741588,-1.505801,0.729986,10.194143,22.297613,-29.577866
225,222484119,-21.497864,-0.934917,167.705139,-1.771030,-1.559245,1.247134,6.268739,17.038054,-13.660943
226,222500786,-21.508560,-0.761063,167.595734,-1.517861,-0.636611,1.063194,-1.652186,12.110849,-2.209365
227,222517453,-21.610897,-0.598001,167.601898,-0.949153,0.542425,0.442500,-7.048554,8.964443,4.012378
228,222534120,-21.726706,-0.464798,167.631729,-0.390994,1.284728,0.042690,-7.844572,6.769023,4.686748
229,222550787,-21.853960,-0.346332,167.633926,-0.090959,1.254854,-0.169395,-8.547012,6.553504,2.835384
230,222567454,-22.069847,-0.248123,167.592087,0.009022,1.054347,-0.209619,-13.877612,6.406836,-0.051008
231,222584121,-22.369362,-0.161453,167.508469,0.021976,0.783052,-0.350759,-18.898779,6.714423,-2.603957
232,222600788,-22.704788,-0.090672,167.398407,-0.113141,0.552655,-0.628545,-21.049652,6.456979,-4.397465
233,222617455,-23.007246,-0.035650,167.299515,-0.068737,-0.052961,-0.671806,-19.062752,5.350302,-4.111075
234,222634122,-23.259781,-0.019622,167.214310,0.123207,-0.305090,-0.608570,-16.063852,2.896345,-4.248947
235,222650789,-23.415491,-0.041378,167.153336,0.227474,-0.231472,-0.617311,-10.253638,0.254891,-3.803039
236,222667456,-23.496679,-0.071743,167.121323,0.074091,-0.310951,-0.833673,-5.783233,-0.903040,-2.414087
237,222684123,-23.572924,-0.091090,167.108368,0.095284,-0.022071,-0.952379,-5.485741,-0.750721,-1.101897
238,222700790,-23.606466,-0.086194,167.096313,0.125678,0.355768,-1.006191,-2.923434,0.561962,-0.471235
239,222717457,-23.596273,-0.073998,167.069473,0.133237,0.492368,-0.985342,-0.299963,1.318535,-1.108889
240,222734124,-23.568077,-0.068317,167.012360,0.172449,0.539798,-0.758139,0.778101,1.686865,-2.930631
241,222750791,-23.535015,-0.069000,166.913498,0.101160,0.500038,-0.654954,1.067839,2.335847,-5.380102
242,222767458,-23.518698,-0.071080,166.797363,0.089982,0.094346,-0.624002,0.062015,2.670694,-6.365333
243,222784125,-23.554823,-0.084472,166.691315,-0.001858,-0.124033,-0.493446,-3.083924,1.807341,-6.080162
244,222800792,-23.590734,-0.108888,166.618805,0.102853,-0.044082,-0.250858,-3.070489,0.400397,-4.499447
245,222817459,-23.602722,-0.160277,166.576324,0.157931,-0.021375,-0.285468,-1.633937,-1.801828,-3.496671
246,222834126,-23.583187,-0.237506,166.555664,0.084253,0.205741,-0.330734,0.259104,-3.746946,-2.916762
247,222850793,-23.530931,-0.321750,166.541779,0.036252,0.213289,-0.375752,2.222945,-4.296954,-2.710963
248,222867460,-23.487263,-0.404764,166.533463,0.106576,0.069797,-0.356849,1.709052,-4.364981,-2.370660
249,222884127,-23.468267,-0.477152,166.529099,0.111971,0.212318,-0.436749,0.229547,-3.876277,-1.897069
250,222900794,-23.450356,-0.540775,166.521881,0.201262,0.335914,-0.426923,0.163018,-3.326463,-1.842860
251,222917461,-23.423054,-0.594208,166.505844,0.200546,0.340635,-0.493443,0.721619,-2.555673,-2.084720
252,222934128,-23.417767,-0.633228,166.488708,0.197142,0.190024,-0.444077,-0.600938,-1.736426,-1.800919
253,222950795,-23.442471,-0.662424,166.460129,0.259753,0.162982,-0.318692,-2.408080,-0.922672,-2.196161
254,222967462,-23.467960,-0.684207,166.422974,0.232090,0.162981,-0.365276,-2.462046,-0.308876,-2.492103
255,222984129,-23.449760,-0.703604,166.382690,0.236489,0.201119,-0.422190,0.156321,-0.102707,-2.607462
256,223000796,-23.403120,-0.731939,166.344864,0.139884,0.133927,-0.466049,1.864022,-0.655467,-2.684467
257,223017463,-23.364944,-0.765694,166.306824,-0.004631,0.248988,-0.579327,1.354304,-0.950987,-2.824799
258,223034130,-23.349438,-0.794201,166.270325,-0.031351,0.228485,-0.568078,-0.004905,-0.699662,-2.615582
259,223050797,-23.329830,-0.828125,166.243896,0.038144,0.226473,-0.396594,0.248078,-1.237939,-2.189540
260,223067464,-23.245825,-0.875540,166.230728,0.042720,0.534415,-0.419609,4.123357,-2.298292,-1.776804
261,223084131,-23.081291,-0.936284,166.232880,-0.209391,0.555052,-0.633489,8.968744,-3.398447,-1.242613
262,223100798,-22.909548,-0.992356,166.259048,-0.434309,0.615968,-0.650948,9.427084,-3.707388,0.204767
263,223117465,-22.757269,-1.051659,166.313858,-0.420742,0.522217,-0.363199,8.291044,-4.551992,1.723729
264,223134132,-22.592445,-1.145044,166.390686,-0.322979,0.971748,-0.133828,9.074142,-6.942531,2.166483
265,223150799,-22.339520,-1.284395,166.486328,-0.511514,1.411024,0.002200,14.394767,-9.913955,2.180123
266,223167466,-22.080931,-1.454373,166.588776,-0.865349,1.712852,0.171309,14.760444,-11.759343,1.908590
267,223184133,-21.964043,-1.641337,166.676514,-1.156267,2.427001,0.440169,6.255785,-12.365410,0.746335
268,223200800,-22.034288,-1.828919,166.704376,-1.192398,3.742635,0.730847,-5.061609,-11.052857,-2.591417
269,223217467,-22.272213,-2.010760,166.619003,-1.239411,5.355364,0.968736,-15.340554,-8.163521,-8.780416
270,223234134,-22.643475,-2.158745,166.370712,-1.356809,6.954859,0.904607,-23.705767,-2.505724,-17.072493
271,223250801,-23.137543,-2.232162,165.878433,-1.697863,9.121110,0.548668,-31.656509,7.438855,-28.826540
272,223267468,-23.688488,-2.160481,165.106445,-2.905856,11.395614,-0.340555,-35.702969,22.359192,-40.686600
273,223284135,-24.244209,-1.790962,163.967041,-4.069862,14.943630,-1.736744,-36.559212,48.038017,-53.343433
274,223300802,-24.746872,-0.966337,162.166779,-4.841764,20.934505,-4.767864,-33.602528,89.828629,-77.664749
275,223317469,-25.142502,0.573575,159.311508,-5.990617,28.385414,-7.273085,-25.145836,156.058548,-116.283455
276,223334136,-25.809910,2.920720,155.152603,-5.205117,32.839001,-5.486480,-33.215282,234.436081,-164.521698
277,223350803,-27.108871,6.190171,149.320908,2.789919,30.823971,-2.757545,-50.834885,330.987823,-224.839432
278,223367470,-29.826391,9.813192,141.336594,12.675017,20.554440,-2.878127,-96.987717,416.477142,-312.418060
279,223384137,-34.300797,13.271911,131.224533,18.277092,8.001714,-4.037934,-147.358292,490.393585,-392.571228
280,223400804,-40.543419,16.694332,119.687454,22.587835,-14.437586,0.261647,-195.045792,569.072510,-406.560150
281,223417471,-46.301960,18.883265,107.144180,29.739714,-51.397308,18.576283,-115.077225,587.642883,-430.294769
282,223434138,-48.198055,17.481775,96.455185,-1.264872,-74.495300,24.265118,85.854752,390.560181,-474.921692
283,223450805,-46.412518,15.280340,91.381897,-38.219566,-39.158741,-8.984152,192.065475,125.195999,-294.950043
284,223467472,-43.946785,15.141302,92.640739,-16.460155,-8.815003,-16.028908,127.232315,-57.565048,45.553158
285,223484139,-38.127209,16.528654,98.666466,-6.813467,-12.447043,0.041246,249.294647,-165.654846,317.099579
286,223500806,-31.635469,16.935919,105.551964,-11.513332,-30.002274,5.817982,269.214081,-206.271149,338.649017
287,223517473,-29.797579,15.775895,110.722679,-4.342399,-23.698763,-1.399508,21.894003,-211.864090,220.440536
288,223534140,-31.962646,14.347955,115.938759,0.971791,-14.439112,-1.343814,-212.100784,-228.654861,215.496582
289,223550807,-34.360817,13.153339,120.697159,7.912999,-9.078795,-1.612841,-212.641296,-211.735794,193.022583
290,223567474,-34.792328,11.839066,125.346092,11.215096,-4.685833,-2.281956,-87.207497,-219.491882,179.521927
291,223584141,-33.538853,10.680490,130.357224,8.122641,-3.839425,-0.894675,15.475868,-223.134354,204.988831
292,223600808,-31.887373,9.850283,135.664001,4.912504,-4.736432,0.425298,41.295628,-211.263962,236.726196
293,223617475,-30.728830,9.074953,140.947388,4.388269,-5.204061,0.806563,16.357534,-202.265793,243.012833
294,223634142,-30.304188,8.057856,145.852203,5.098106,-3.712674,0.596584,-19.372032,-200.374207,219.741531
295,223650809,-30.170910,6.785391,150.449326,5.172291,-0.624391,0.365332,-28.644617,-203.731674,197.893356
296,223667476,-30.019335,5.272328,154.876709,5.432563,0.935225,0.172132,-19.823847,-211.040863,183.083435
297,223684143,-30.017275,3.637627,159.154617,3.265716,2.332340,-0.655753,-20.831324,-212.975403,172.554611
298,223700810,-30.261730,2.068349,163.242813,0.911179,4.002738,-1.630063,-27.888504,-204.469330,164.640900
299,223717477,-30.344530,0.688998,167.062775,0.020261,7.732894,-2.247706,-11.500095,-187.100082,156.115143
300,223734144,-29.846701,-0.493543,170.473251,0.136258,12.689652,-2.006919,28.496714,-164.032669,141.514954
301,223750811,-28.258511,-1.470475,173.480637,-0.842872,19.049246,-2.741975,97.356865,-138.893463,129.307373
302,223767478,-26.023735,-2.098288,175.696991,-3.639784,19.595003,-3.764941,137.229553,-94.199684,101.156319
303,223784145,-24.460882,-2.461582,176.920639,-3.493103,13.388586,-2.752584,95.733978,-51.037224,57.118725
304,223800812,-23.643850,-2.595592,176.836639,-3.473741,8.079823,-1.214642,47.864464,-5.321404,-7.814027
305,223817479,-23.861355,-2.520329,175.754150,-1.150887,6.878024,-0.469596,-16.870958,30.241920,-57.507523
306,223834146,-24.529867,-2.398705,174.317535,0.753739,4.795626,0.602082,-44.718700,41.927113,-75.497108
307,223850813,-24.883440,-2.407675,172.954193,0.303860,0.717387,1.595571,-25.546843,33.647034,-74.408783
308,223867480,-24.913628,-2.512101,171.949295,-1.037740,-2.237603,1.361682,-5.302384,19.654066,-57.215164
309,223884147,-24.839571,-2.675120,171.398880,-2.006082,-2.489366,1.366385,2.044126,4.982030,-33.982483
310,223900814,-24.735346,-2.892951,171.135498,-2.369306,-1.143018,1.092399,4.576900,-5.268642,-19.746000
311,223917481,-24.728725,-3.097447,171.015167,-2.000897,0.230078,0.328580,-0.891822,-8.145382,-11.617507
312,223934148,-24.949821,-3.219187,170.900177,-1.315067,1.210002,-0.390617,-14.556955,-3.749396,-9.254877
313,223950815,-25.305882,-3.241841,170.710754,-0.592084,1.929792,-0.858180,-22.913443,3.574702,-10.783265
314,223967482,-25.661652,-3.193926,170.420944,-0.165443,2.128885,-1.062275,-23.229057,10.053558,-14.368908
315,223984149,-25.958958,-3.086786,170.064819,-0.149047,1.215711,-1.068598,-19.912258,15.065468,-16.341084
316,224000816,-26.235485,-2.942423,169.683792,-0.056788,0.152751,-1.122900,-18.695194,17.810600,-16.624414
317,224017483,-26.466944,-2.788918,169.344223,-0.129582,-0.177359,-1.049435,-15.807278,17.275331,-14.079377
318,224034150,-26.496689,-2.633148,169.059479,-0.181401,-0.330931,-0.987989,-3.493448,15.965203,-11.040367
319,224050817,-26.392225,-2.490894,168.840378,-0.253596,-0.589198,-0.881153,4.777970,13.480891,-7.890973
320,224067484,-26.272146,-2.365590,168.676666,-0.191576,-0.568105,-0.702479,5.885476,11.081720,-5.393500
321,224084151,-26.173719,-2.272220,168.531570,-0.067337,-0.217513,-0.516714,4.649085,8.859597,-5.259916
322,224100818,-26.114597,-2.202352,168.368851,0.239192,0.153706,-0.402491,2.262607,8.052949,-6.843933
323,224117485,-26.092710,-2.167839,168.167831,0.287958,0.379353,-0.354984,-0.050214,7.152921,-9.844542
324,224134152,-26.021212,-2.165031,167.928391,0.372671,0.650787,-0.309684,2.843876,6.447560,-12.755389
325,224150819,-25.876110,-2.195976,167.663818,0.185580,0.376249,-0.406939,7.200538,5.261142,-15.008776
326,224167486,-25.739000,-2.233283,167.405548,-0.079431,0.021731,-0.435049,6.726471,4.715527,-14.847095
327,224184153,-25.688629,-2.260968,167.165283,-0.062713,-0.165191,-0.273707,1.556261,4.743124,-13.631729
328,224200820,-25.704721,-2.282006,166.941422,0.014949,0.124720,-0.151331,-2.398311,4.672227,-12.574230
329,224217487,-25.701103,-2.308411,166.730621,0.149677,0.365200,-0.139226,-1.190351,4.043716,-12.007702
330,224234154,-25.622725,-2.335541,166.541122,0.098704,0.483066,-0.241828,3.341608,3.442445,-10.877579
331,224250821,-25.471655,-2.359257,166.376663,-0.077394,0.363063,-0.458449,7.760888,2.957942,-9.441805
332,224267488,-25.346218,-2.364752,166.234741,-0.324600,0.259414,-0.552843,6.276784,3.342925,-7.759253
333,224284155,-25.277031,-2.339973,166.113525,-0.329698,0.367121,-0.558157,2.955161,4.441992,-5.866487
334,224300822,-25.223167,-2.294344,166.017487,-0.218409,0.348393,-0.378290,2.101413,4.923459,-3.971621
335,224317489,-25.164412,-2.263809,165.916199,0.006733,0.617550,-0.289454,2.386611,4.234734,-4.646913
336,224334156,-25.098145,-2.241030,165.821976,0.077047,0.550738,-0.165618,2.858371,3.628584,-4.465511
337,224350823,-25.022739,-2.246599,165.722214,0.124348,0.798660,-0.214857,3.394561,2.223381,-5.491825
338,224367490,-24.943598,-2.267193,165.613388,-0.162281,0.707364,-0.375763,3.597785,1.628232,-6.367537
339,224384157,-24.925747,-2.279510,165.500214,-0.348806,0.829758,-0.543001,-0.090259,2.183630,-6.396068
340,224400824,-24.925274,-2.283400,165.387207,-0.265252,0.948481,-0.461695,-1.132299,2.637384,-6.173019
341,224417491,-24.865856,-2.302132,165.263977,-0.162626,0.981694,-0.362555,2.380400,2.085854,-7.106027
342,224434158,-24.704590,-2.345964,165.133575,-0.199956,1.056540,-0.202594,8.470680,0.885233,-8.130243
343,224450825,-24.486740,-2.414200,164.990555,-0.407130,1.200912,-0.279087,11.828883,-0.157813,-9.429900
344,224467492,-24.288841,-2.467790,164.817810,-0.655653,1.954483,-0.601203,10.548605,1.345392,-10.689238
345,224484159,-24.190197,-2.448635,164.635376,-0.779686,2.659201,-0.815421,4.568560,5.537539,-9.429321
346,224500826,-24.205950,-2.364424,164.455185,-0.644181,2.972498,-0.596943,-2.275126,9.038758,-7.709900
347,224517493,-24.224480,-2.270194,164.210266,-0.626142,3.792824,-0.225811,-2.576819,11.183917,-10.999794
348,224534160,-24.164276,-2.175463,163.843796,-0.859979,4.505169,0.266390,1.895068,14.197011,-17.637411
349,224550827,-24.152493,-2.083309,163.304062,-1.160741,5.089248,0.509804,-1.353329,18.301003,-27.188366
350,224567494,-24.391779,-1.948683,162.594345,-1.566213,5.334442,0.667836,-16.702013,24.874187,-35.396286
351,224584161,-24.975147,-1.759022,161.703049,-1.662376,6.318786,0.777983,-37.570824,32.683826,-43.733295
352,224600828,-25.826588,-1.535699,160.608978,-1.924429,8.027696,0.721189,-53.799603,40.280991,-53.442589
353,224617495,-26.720427,-1.235539,159.279037,-2.698593,10.046099,0.276634,-56.373005,51.500050,-63.470116
354,224634162,-27.453791,-0.782422,157.685455,-3.548249,11.634709,-0.232171,-46.482616,67.786705,-72.638901
355,224650829,-27.976652,-0.078475,155.788284,-3.858614,12.425329,-0.710772,-33.006802,90.393555,-81.019707
356,224667496,-28.361128,0.909859,153.611237,-3.584205,12.364560,-1.304047,-22.884766,114.017715,-87.040100
357,224684163,-28.671734,2.152390,151.020691,-2.816163,12.620837,-1.655965,-15.231418,139.779327,-100.809509
358,224700830,-28.952059,3.560293,147.768951,-1.630521,14.031674,-2.642332,-7.831202,168.032516,-129.891724
359,224717497,-29.156698,5.136821,143.620010,-0.147779,14.636495,-3.691041,5.763734,202.686096,-169.719864
360,224734164,-29.472855,7.011332,138.467545,2.580044,11.085563,-4.617025,12.867183,247.943909,-211.515411
361,224750831,-30.413689,9.174886,132.218643,5.906605,4.519279,-4.650881,-4.592278,296.947266,-255.156174
362,224767498,-32.296005,11.500223,125.093071,8.812234,-5.197735,-2.621063,-36.793167,338.051025,-286.448181
363,224784165,-34.968452,13.760289,116.948532,15.107825,-21.327097,1.772229,-53.970314,377.022308,-321.814453
364,224800832,-37.747784,14.553303,108.503372,15.977571,-47.243797,11.867651,-43.331631,329.668091,-367.264557
365,224817499,-39.081795,13.171420,101.629501,-4.047436,-45.681965,10.324888,18.057882,184.009811,-365.008057
366,224834166,-38.048481,12.088694,98.565125,-20.731833,-21.019630,-2.243124,101.334473,61.105053,-180.656448
367,224850833,-36.221470,11.913582,99.419678,-2.883924,-5.221782,-7.061897,98.059814,-38.633671,33.726791
368,224867500,-32.543240,12.318657,103.210167,6.306106,-5.579255,-1.543751,171.972229,-105.518456,197.329025
369,224884167,-27.232981,12.446010,108.560020,-1.322782,-16.410120,2.583743,248.665802,-149.642120,275.754059
370,224900834,-22.883715,11.516234,113.312592,-0.079257,-19.745237,2.437036,200.697174,-168.702026,229.160141
371,224917501,-22.081251,9.927099,117.450882,0.525949,-16.170914,-1.994908,0.997171,-181.418747,189.020630
372,224934168,-24.561750,8.469520,121.670860,2.057454,-12.440759,-2.376049,-190.183609,-179.333328,194.966980
373,224950835,-27.912563,7.539967,126.020882,5.991995,-10.371904,-1.692618,-238.266830,-164.399872,207.234451
374,224967502,-30.623697,6.894449,130.428223,9.343913,-7.367159,-1.333207,-196.795731,-162.169434,209.949356
375,224984169,-31.926085,6.298106,134.814194,10.450379,-2.113198,-0.396486,-109.329659,-166.416214,204.846725
376,225000836,-31.885208,5.761233,139.130280,8.020503,0.412283,0.570221,-25.747503,-163.585815,201.576035
377,225017503,-31.080133,5.218038,143.352188,5.079338,-0.445528,0.672501,23.050047,-159.614059,197.990082
378,225034170,-30.064594,4.527186,147.271118,3.613335,-0.628880,-0.293256,39.928436,-154.992477,180.612366
379,225050837,-29.264690,3.629521,150.853867,2.287710,-0.380465,-1.095782,31.671875,-153.064178,159.644806
380,225067504,-28.957659,2.582924,154.172958,1.302761,0.385561,-0.725641,6.598429,-151.747223,143.168701
381,225084171,-29.140289,1.547592,157.306366,-0.221300,2.373429,-0.726966,-18.765518,-145.673660,134.074387
382,225100838,-29.559317,0.598962,160.202026,-1.115170,3.875018,-1.352564,-29.430002,-134.889847,123.507706
383,225117505,-29.952965,-0.217816,162.854187,-1.295303,5.819000,-1.980180,-25.185205,-121.651199,113.821602
384,225134172,-29.731424,-0.852922,165.338974,-2.078302,9.114389,-1.555669,13.646283,-107.359329,110.352875
385,225150839,-28.485283,-1.395191,167.435776,-2.358499,12.046087,-0.862657,76.202309,-89.729866,94.082329
386,225167506,-26.741079,-1.905390,169.084991,-2.893715,13.522487,-0.520233,106.490349,-73.076416,73.480843
387,225184173,-25.306292,-2.210581,170.153381,-2.854563,11.288158,-1.942887,87.409691,-44.655807,49.563393
388,225200840,-24.693922,-2.590219,170.592255,-3.071304,8.700529,-1.936731,36.892639,-31.846325,14.253090
389,225217507,-24.192766,-2.894919,170.267593,-3.081239,8.339657,-1.328716,28.203671,-8.666833,-25.236839
390,225234174,-24.142042,-3.094998,169.321136,-2.346122,6.829651,-1.212416,-0.837801,12.199648,-56.608879
391,225250841,-24.483084,-3.204583,168.143005,-1.113461,5.370035,0.180797,-25.243172,23.009735,-66.980003
392,225267508,-24.724337,-3.275454,166.919342,-1.551941,1.845522,0.605192,-19.508141,26.600435,-68.367638
393,225284175,-24.849499,-3.263867,165.902893,-2.456084,-0.216089,0.126669,-11.867331,26.110840,-54.935883
394,225300842,-25.023186,-3.190748,165.230255,-2.548387,-0.777760,0.012935,-13.573589,20.925259,-34.635590
395,225317509,-25.083860,-3.092159,164.900238,-2.244737,-0.589040,0.353602,-5.608819,13.694999,-15.351111
396,225334176,-25.042625,-3.011592,164.814987,-1.931606,-0.283862,0.081907,1.315795,6.510897,-2.521776
397,225350843,-25.073343,-2.912856,164.887863,-1.757049,0.359623,-0.269514,-2.504346,3.489776,6.522973
398,225367510,-25.216688,-2.772472,165.020416,-0.933825,1.000169,-0.395411,-9.095255,4.226233,10.829742
399,225384177,-25.452618,-2.592467,165.121948,-0.476126,1.360236,-0.410210,-14.756994,7.136893,10.182067
400,225400844,-25.753700,-2.378451,165.163376,0.004966,1.117484,-0.502151,-18.840019,10.487658,7.850902
401,225417511,-26.025110,-2.156700,165.162506,0.160772,1.037724,-0.681036,-17.167721,11.974155,5.824382
402,225434178,-26.186605,-1.948651,165.154297,0.292428,0.522739,-0.862229,-10.584728,11.407453,5.113664
403,225450845,-26.234097,-1.776388,165.158875,0.306485,-0.135348,-0.746918,-3.717378,9.133269,4.873773
404,225467512,-26.240215,-1.637037,165.187592,0.291040,-0.555461,-0.617543,-1.193142,6.718924,5.303284
405,225484179,-26.274103,-1.524201,165.231369,0.388131,-0.513201,-0.444062,-2.839245,4.890049,5.410871
406,225500846,-26.320562,-1.430686,165.268997,0.495720,0.045653,-0.529602,-3.607921,4.009189,4.569633
407,225517513,-26.321096,-1.360211,165.273163,0.499139,0.324547,-0.504357,-0.905089,3.656783,2.159439
408,225534180,-26.261274,-1.309145,165.238144,0.574402,0.413753,-0.391288,2.662434,3.654030,-0.465818
409,225550847,-26.183943,-1.265463,165.179657,0.410370,0.289588,-0.355359,3.684394,3.876950,-1.929161
410,225567514,-26.151453,-1.225064,165.098770,0.259979,0.220733,-0.324409,0.968922,4.290262,-3.226765
411,225584181,-26.175171,-1.189582,165.003159,0.123721,0.170939,-0.320698,-2.417647,4.414548,-4.150385
412,225600848,-26.214163,-1.160765,164.903000,0.028552,0.173264,-0.177194,-3.336644,4.178028,-4.568372
413,225617515,-26.235283,-1.141533,164.804688,0.156873,0.149951,-0.179348,-2.259296,3.615418,-4.720306
414,225634182,-26.226828,-1.130308,164.727249,0.056151,0.264125,-0.291627,-0.457853,2.631878,-3.810197
415,225650849,-26.191259,-1.120988,164.673447,-0.066712,0.259622,-0.491898,1.198847,1.901865,-2.589790
416,225667516,-26.167059,-1.107143,164.642593,-0.195055,0.072216,-0.446576,0.544712,1.536845,-1.234942
417,225684183,-26.213703,-1.088594,164.629807,-0.174167,0.050018,-0.404752,-3.684810,1.313080,-0.138398
418,225700850,-26.324028,-1.068866,164.638672,-0.186640,0.353628,-0.286053,-7.481202,0.801569,1.061371
419,225717517,-26.385782,-1.053176,164.651260,0.038710,0.763679,-0.315014,-4.561892,0.485329,1.154064
420,225734184,-26.363482,-1.053497,164.662735,0.041888,0.781403,-0.418742,0.482601,-0.346168,0.668933
421,225750851,-26.309553,-1.050946,164.669189,-0.171020,0.610363,-0.585309,2.376430,-0.057052,0.475122
422,225767518,-26.297579,-1.044240,164.672272,-0.277932,0.490120,-0.545385,-0.144187,0.257248,0.404521
423,225784185,-26.345596,-1.041127,164.665573,-0.245923,0.648987,-0.531666,-3.752811,0.324865,-0.215992
424,225800852,-26.382488,-1.045530,164.636688,-0.282088,1.323965,-0.544554,-3.107845,0.513503,-1.608810
425,225817519,-26.338882,-1.045128,164.576965,-0.292430,1.850124,-0.606826,1.691482,1.594615,-3.137531
426,225834186,-26.264469,-1.029543,164.453293,-0.429426,2.493564,-0.739683,3.475906,4.109219,-6.172623
427,225850853,-26.219152,-0.984462,164.226608,-0.661990,3.502291,-0.935759,1.631235,8.425918,-10.936823
428,225867520,-26.198009,-0.878919,163.861191,-0.905227,4.462624,-0.998756,0.072247,15.354375,-16.805508
429,225884187,-26.203941,-0.687194,163.332977,-0.996059,4.798704,-0.862765,-1.617000,24.309332,-23.284224
430,225900854,-26.328693,-0.411254,162.626007,-1.054024,4.810808,-0.586705,-8.708267,33.620522,-30.636118
431,225917521,-26.674631,-0.070179,161.747726,-1.224676,4.967977,-0.193787,-21.780718,41.838230,-37.950047
432,225934188,-27.252083,0.311830,160.681015,-1.624966,5.557414,-0.029990,-35.303146,49.467201,-46.571774
433,225950855,-27.992809,0.747822,159.439194,-2.332119,6.655507,-0.163304,-44.531059,57.749214,-53.796219
434,225967522,-28.839863,1.275273,158.041626,-3.035081,7.913809,-0.544528,-50.103657,67.772682,-58.583210
435,225984189,-29.706181,1.953978,156.472107,-3.450198,9.025646,-0.737745,-50.069668,81.606674,-62.092491
436,226000856,-30.537109,2.789977,154.679886,-3.518291,9.498753,-0.821074,-46.131138,97.378044,-67.638374
437,226017523,-31.378710,3.793185,152.629486,-3.352167,9.230729,-0.816992,-44.139656,114.889793,-74.222641
438,226034190,-32.357391,4.939812,150.220886,-2.851954,9.079295,-1.157000,-48.407310,134.615234,-85.897064
439,226050857,-33.472507,6.164021,147.361847,-1.782147,9.607297,-1.712679,-50.982838,154.566833,-103.241776
440,226067524,-34.451389,7.486184,143.937302,-0.174618,10.441737,-2.637208,-34.973972,179.909103,-124.700531
441,226084191,-35.146217,8.919456,139.716385,2.197951,10.408371,-3.355989,-6.429082,212.966278,-155.318405
442,226100858,-35.818806,10.437572,134.504608,5.418001,8.022642,-4.022384,11.274136,252.241653,-196.497971
443,226117525,-36.706551,12.020312,128.234131,8.710105,3.276856,-3.915683,18.991341,293.842468,-239.588913
444,226134192,-37.840721,13.772955,121.032906,11.981934,-4.819631,-3.081455,27.799898,338.868378,-271.237183
445,226150859,-39.047382,15.563612,113.242813,13.495642,-17.979200,0.154915,45.370449,365.369812,-287.130524
446,226167526,-40.063786,16.520954,105.545425,9.006173,-34.789120,9.185371,66.005775,327.057587,-305.382263
447,226184193,-40.195835,16.093493,99.512680,-9.410017,-40.064461,13.967478,92.960693,204.442871,-281.891541
448,226200860,-39.504887,15.499638,97.329300,-21.238707,-21.327534,-1.155332,76.297264,53.485783,-119.447647
449,226217527,-38.853912,15.373213,98.387909,-0.619070,-4.164284,-8.700392,21.265768,-44.523674,42.774548
450,226234194,-36.400749,16.035933,101.857918,4.893913,-6.376278,0.817326,89.903320,-90.858856,183.105331
451,226250861,-33.376026,16.503452,106.390442,-1.491083,-15.961748,4.137477,104.327095,-126.321129,230.262482
452,226267528,-31.942921,15.773279,110.073250,-0.572389,-15.120316,2.967494,23.642445,-151.443878,155.119766
453,226284195,-33.290806,14.476489,113.159531,0.941230,-10.426875,-0.717454,-130.083405,-161.948227,108.677139
454,226300862,-35.898506,13.362766,116.376633,5.605572,-7.065692,0.266260,-203.781769,-161.474167,116.324585
455,226317529,-37.495949,12.564783,120.014252,7.397859,-6.040939,1.933072,-145.708817,-165.591400,141.933624
456,226334196,-37.424362,11.950151,124.105301,7.685940,-5.885259,1.414530,-48.753014,-175.269211,167.950317
457,226350863,-36.203693,11.311573,128.370178,5.889915,-5.041135,0.967255,20.677376,-180.988724,177.663528
458,226367530,-34.881485,10.681719,132.576050,3.416438,-5.651219,0.810294,30.212402,-174.895691,179.549332
459,226384197,-34.290047,9.886409,136.638840,2.788058,-5.606355,0.976158,-9.017062,-175.591370,170.324249
460,226400864,-34.377991,8.801197,140.525574,2.978436,-3.807468,0.443847,-44.128731,-183.717438,153.235596
461,226417531,-34.640144,7.545404,144.245224,2.639235,-1.479105,-0.488878,-48.463181,-187.413681,139.292450
462,226434198,-34.733200,6.358813,147.839798,2.191427,0.049675,-1.502627,-32.712608,-180.551163,135.459869
463,226450865,-34.664375,5.305345,151.394760,1.382221,1.209291,-1.669234,-18.584892,-172.934158,138.409286
464,226467532,-34.575912,4.398703,154.889252,0.500244,1.717625,-1.366381,-13.477243,-163.632080,140.958618
465,226484199,-34.521942,3.616501,158.310181,0.040291,1.634106,-1.490176,-12.165115,-154.939865,141.970184
466,226500866,-34.419548,3.000102,161.609070,0.485224,3.378279,-1.846937,-6.347285,-142.493423,141.922516
467,226517533,-34.091816,2.615874,164.734070,-0.642787,6.415850,-2.667304,9.405534,-124.627457,141.764114
468,226534200,-33.449356,2.433953,167.611633,-1.912881,8.406269,-3.584193,29.874315,-105.103142,137.275253
469,226550867,-32.473923,2.449369,170.305969,-1.729017,9.916694,-4.278118,50.584206,-87.239449,135.992294
470,226567534,-31.070435,2.697008,172.842575,-2.808971,10.872741,-2.940634,76.340790,-67.556282,137.068176
471,226584201,-29.657764,2.777984,174.653275,-0.930960,9.196819,-1.547285,78.570847,-50.780727,96.089508
472,226600868,-28.457441,2.729108,175.553833,-2.793105,12.243797,0.311954,68.454803,-28.888689,45.760746
473,226617535,-27.796654,2.640366,175.433273,-2.169168,10.659177,0.439275,39.056740,-1.392980,-8.864606
474,226634202,-28.026941,2.531593,174.503571,-0.900000,8.529241,0.997115,-12.193746,20.222378,-52.272598
475,226650869,-28.640501,2.385578,173.175888,-0.614150,4.711390,1.497911,-34.258652,29.971748,-74.183556
476,226667536,-29.277962,2.246767,171.821228,-1.050966,0.501476,1.071012,-35.807438,31.949825,-75.061638
477,226684203,-29.872017,2.112251,170.695312,-1.732986,-1.373299,0.154212,-33.915798,26.218554,-62.662663
478,226700870,-30.357435,2.012095,169.920212,-2.054538,-1.489678,-0.534079,-28.297962,18.046045,-43.185143
479,226717537,-30.647121,1.953598,169.508820,-2.073310,-1.521338,-0.820592,-17.378456,9.428535,-23.000628
480,226734204,-30.827469,1.922271,169.364227,-1.761714,-0.849828,-1.037648,-11.385353,2.753848,-8.376294
481,226750871,-30.949991,1.950683,169.376648,-1.140894,-0.015723,-0.944510,-8.238262,1.022978,1.554019
482,226767538,-31.069096,2.033707,169.430222,-0.538283,0.656548,-0.917117,-8.120714,2.560163,5.361182
483,226784205,-31.159088,2.151210,169.449203,0.047549,1.170277,-0.951852,-6.302595,5.395015,4.660687
484,226800872,-31.211205,2.285393,169.434357,0.175141,1.167724,-0.959840,-3.949390,7.296786,3.450025
485,226817539,-31.245260,2.415802,169.392044,0.093678,0.886229,-0.865504,-2.791580,7.954275,1.930795
486,226834206,-31.280140,2.533639,169.326706,0.161342,0.412260,-0.713385,-2.773753,8.024415,0.365372
487,226850873,-31.346266,2.611052,169.232437,0.200122,0.060945,-0.708523,-4.562597,6.853506,-2.369713
488,226867540,-31.414404,2.648540,169.126541,0.274320,-0.115065,-0.533466,-4.646171,5.173043,-4.203198
489,226884207,-31.417057,2.621921,169.018021,0.400054,0.073141,-0.242768,-0.707461,1.975155,-6.340219
490,226900874,-31.296022,2.545554,168.906204,0.556072,0.316249,-0.142920,6.715582,-0.478727,-8.064737
491,226917541,-31.114561,2.444377,168.803162,0.326610,0.336446,-0.392338,10.310291,-2.046123,-8.386718
492,226934208,-30.966537,2.349854,168.713791,0.116480,0.184744,-0.497217,8.259722,-2.152262,-7.472176
493,226950875,-30.879873,2.255118,168.609070,-0.165530,0.209434,-0.343682,4.608116,-1.704859,-8.264772
494,226967542,-30.863583,2.177282,168.488724,-0.235899,0.127470,-0.177131,0.412205,-0.360870,-8.546217
495,226984209,-30.916021,2.103683,168.353821,-0.052129,0.028245,0.050448,-3.687961,0.309754,-9.165404
496,227000876,-30.952547,2.029627,168.224548,0.064973,0.109235,-0.027147,-2.755351,0.120194,-8.889158
497,227017543,-30.927525,1.953919,168.134003,0.107101,0.201249,-0.322196,0.846455,-1.157003,-6.949303
498,227034210,-30.850342,1.888878,168.092255,0.049959,0.019166,-0.595451,3.872852,-2.116211,-4.108905
499,227050877,-30.808020,1.833108,168.080612,-0.025213,-0.245757,-0.623116,1.719041,-2.568045,-2.271462
500,227067544,-30.788631,1.774227,168.079330,-0.122924,0.110722,-0.508615,0.322176,-3.047873,-1.831526
501,227084211,-30.744366,1.709031,168.082062,-0.033774,0.184017,-0.441916,1.807994,-3.496800,-1.817106
502,227100878,-30.669069,1.634858,168.077820,0.102981,0.213473,-0.508360,3.681563,-3.747843,-2.448011
503,227117545,-30.563171,1.552433,168.063812,0.137062,0.494693,-0.570062,5.535629,-3.879928,-3.197593
504,227134212,-30.433212,1.482975,168.043655,0.095256,0.525941,-0.704334,6.988293,-3.028959,-3.112981
505,227150879,-30.322502,1.421362,168.022583,-0.038200,0.483652,-0.780533,5.836156,-2.601854,-2.915456
506,227167546,-30.214520,1.357081,167.995438,-0.113796,0.683551,-0.610021,5.681058,-2.560848,-3.306677
507,227184213,-30.088633,1.284579,167.965042,-0.249000,0.838499,-0.464840,6.759763,-2.895696,-3.716647
508,227200880,-29.964132,1.208720,167.922256,-0.469145,1.215638,-0.528925,6.693387,-2.704970,-4.453883
509,227217547,-29.879349,1.135723,167.844345,-0.696165,2.021920,-0.617874,4.353231,-1.511354,-6.187478
510,227234214,-29.859720,1.072974,167.688614,-0.886321,3.139283,-0.657026,0.535940,1.345224,-9.926692
511,227250881,-29.921303,1.031561,167.413086,-1.246582,4.345085,-0.646122,-4.203023,6.045391,-15.516037
512,227267548,-30.075277,1.037499,166.969467,-1.797938,5.323998,-0.654617,-9.554972,13.584084,-22.812935
513,227284215,-30.380169,1.118008,166.297699,-2.064788,6.126006,-0.574643,-18.314976,24.440773,-32.323692
514,227300882,-30.915874,1.268902,165.359818,-2.037292,6.860765,-0.245996,-31.729334,36.460472,-43.716587
515,227317549,-31.686470,1.471729,164.138260,-2.168577,7.866079,-0.032908,-45.219254,48.470608,-56.204910
516,227334216,-32.540455,1.748371,162.655014,-2.707475,8.907532,-0.295338,-49.448898,61.369530,-66.433212
517,227350883,-33.341503,2.170969,160.924271,-3.378959,9.909288,-0.768042,-45.194977,77.753265,-73.205070
518,227367550,-34.060863,2.776694,158.918091,-3.470284,10.418962,-1.007045,-38.620308,97.023178,-79.757881
519,227384217,-34.718220,3.603933,156.632843,-3.277236,10.066187,-1.100986,-32.436611,118.367996,-84.793083
520,227400884,-35.426170,4.665366,154.025009,-2.900363,9.283689,-1.071295,-31.796276,141.904205,-90.960686
521,227417551,-36.334782,5.892648,150.952591,-2.024616,9.035831,-1.845682,-38.133312,167.378281,-105.376015
522,227434218,-37.450516,7.229595,147.242065,-0.353409,9.609827,-2.716044,-42.059937,197.075027,-128.507401
523,227450885,-38.798206,8.666102,142.743774,1.987603,10.251504,-3.595155,-44.068768,232.988907,-156.820221
524,227467552,-40.553383,10.269006,137.266251,4.643306,9.858789,-4.333786,-51.729717,281.151001,-187.834305
525,227484219,-42.896885,12.010400,130.525696,8.618925,6.564878,-3.720886,-63.277584,340.891449,-224.828751
526,227500886,-45.758888,13.859226,122.604904,12.918916,-3.390329,0.683203,-65.637955,403.130859,-253.541321
527,227517553,-48.603210,15.207538,113.791496,18.218090,-20.738707,9.489531,-38.239811,430.558319,-288.246887
528,227534220,-50.708096,15.039008,105.238800,15.759364,-40.583351,17.037315,7.170862,371.195862,-327.969543
529,227550887,-50.771187,13.635139,98.769913,-3.131843,-36.206081,8.369301,91.671234,238.027237,-302.827881
530,227567554,-48.036850,12.814217,96.413544,-12.106988,-17.323772,-4.948746,195.668030,72.521561,-126.770828
531,227584221,-43.911804,12.725306,97.818794,-3.111501,-6.579804,-7.367037,228.090652,-62.812946,53.466972
532,227600888,-39.685806,13.173637,101.404854,-5.441922,-11.492931,-3.161635,204.486816,-119.717194,174.391403
533,227617555,-36.941895,13.099092,105.680092,-7.866094,-18.734331,0.651604,105.461876,-158.394424,193.320206
534,227634222,-36.763264,11.932945,109.163620,-1.736991,-15.023400,-0.372444,-35.434155,-178.407455,121.363556
535,227650889,-38.500790,10.484550,112.160164,3.155653,-9.503634,-2.777531,-140.053223,-176.601379,86.630585
536,227667556,-40.135113,9.409558,115.225677,5.881156,-4.986798,-2.262292,-130.696884,-164.810883,99.278175
537,227684223,-40.341557,8.700521,118.552986,6.485815,-3.312814,-1.693919,-44.692993,-159.962189,122.977684
538,227700890,-39.546997,8.097654,122.047928,5.107729,-3.238806,-1.348765,16.140520,-161.072601,135.763290
539,227717557,-38.536041,7.634585,125.561516,2.864681,-3.821490,-0.927994,30.894520,-153.290787,144.627090
540,227734224,-37.813629,7.174758,129.038651,1.981756,-6.096054,0.115990,15.536550,-149.747147,145.510239
541,227750891,-37.317600,6.482549,132.449524,2.724798,-6.508286,0.926410,4.487201,-157.007690,135.657364
542,227767558,-36.755344,5.408760,135.894836,3.459441,-5.799103,1.142938,11.351472,-175.486298,125.223763
543,227784225,-36.072281,4.070889,139.412369,2.687382,-4.307616,0.424348,22.544765,-189.682465,121.510872
544,227800892,-35.508076,2.669833,143.005386,1.532027,-3.292127,-0.237741,20.154255,-194.286087,125.303238
545,227817559,-35.076641,1.277086,146.694885,0.641977,-3.168688,0.003381,17.212814,-196.270920,132.195480
546,227834226,-34.626801,0.017678,150.407669,0.882312,-2.415475,-0.446623,23.393457,-189.550674,139.515839
547,227850893,-34.297867,-1.206078,154.131119,0.833165,-0.219584,-0.205684,20.947104,-187.198013,142.547043
548,227867560,-34.092186,-2.335186,157.865204,-0.317043,4.031546,-0.188304,18.140459,-182.134415,147.067429
549,227884227,-33.662735,-3.190150,161.492844,-1.063967,8.069195,-0.513552,35.125015,-164.009171,151.829514
550,227900894,-32.729382,-3.681264,164.940155,-0.968646,12.682914,-1.670766,67.266777,-137.921677,156.580383
551,227917561,-31.099089,-4.002593,168.021667,-1.741411,17.090849,-2.023705,109.101036,-114.096336,146.360809
552,227934228,-29.131731,-3.927302,170.670685,-3.181646,17.360954,-0.385970,127.982941,-75.839447,139.402893
553,227950895,-27.859116,-3.989179,171.852249,-2.379020,12.071077,-1.190971,80.278732,-37.168953,60.374767
554,227967562,-27.775293,-4.039601,171.716675,-3.224312,12.857731,0.146811,3.535418,0.962007,-8.591897
555,227984229,-28.248852,-4.059686,170.596619,-0.669633,9.686851,0.037540,-34.032169,30.290367,-59.744656
556,228000896,-28.965675,-4.099388,169.055527,-0.002855,4.776840,0.714896,-50.417381,41.951534,-82.108795
557,228017563,-29.528490,-4.149857,167.607040,-0.612748,-0.002845,1.004935,-40.828991,39.599178,-77.109741
558,228034230,-29.944384,-4.169221,166.563644,-2.021631,-3.351543,0.525070,-30.302759,29.855484,-54.787876
559,228050897,-30.308098,-4.181800,165.999359,-2.373670,-3.023591,0.283231,-25.111155,16.195194,-29.576693
560,228067564,-30.490078,-4.210625,165.830383,-2.212190,-1.529597,0.008093,-12.496025,3.531220,-9.584908
561,228084231,-30.589483,-4.227651,165.887573,-1.907930,-0.417741,-0.576614,-6.555150,-2.705624,2.442933
562,228100898,-30.796549,-4.207185,166.012787,-1.184979,1.017416,-0.816092,-12.719560,-2.849172,7.088148
563,228117565,-31.100964,-4.146921,166.074188,-0.318304,1.954630,-0.870022,-18.841650,1.135624,5.032486
564,228134232,-31.435188,-4.028397,166.020187,0.095748,2.056237,-0.972210,-21.121601,7.683778,0.950534
565,228150899,-31.766739,-3.862485,165.857437,0.135981,1.668685,-1.280616,-21.395746,13.512812,-3.058022
566,228167566,-32.049629,-3.656608,165.646545,0.102068,1.234531,-1.312890,-18.625727,17.091667,-4.167259
567,228184233,-32.245930,-3.457248,165.424530,0.192183,0.219560,-0.895459,-13.422422,17.134727,-4.868253
568,228200900,-32.370289,-3.302325,165.226151,0.077617,-0.284741,-0.702926,-8.980500,14.140551,-5.051726
569,228217567,-32.428314,-3.180366,165.075424,0.009444,-0.370351,-0.827173,-4.810887,10.949351,-3.679343
570,228234234,-32.432262,-3.108660,164.961945,0.082764,-0.043410,-0.758888,-1.429701,7.210341,-3.407335
571,228250901,-32.355175,-3.081200,164.854630,-0.053610,0.235415,-0.767096,3.457581,4.768311,-4.521667
572,228267568,-32.245651,-3.078622,164.738068,-0.060691,0.448749,-0.763465,5.376023,3.796552,-5.795976
573,228284235,-32.134689,-3.089256,164.609787,0.006197,0.644794,-0.613436,5.426609,3.489802,-6.819793
574,228300902,-32.036083,-3.112930,164.461044,0.055059,0.699260,-0.521455,4.618503,3.466597,-8.279756
575,228317569,-31.928303,-3.161578,164.291809,0.112333,0.701266,-0.482800,5.098588,2.830941,-10.119390
576,228334236,-31.801262,-3.267870,164.116028,-0.000182,0.447763,-0.311416,6.221795,0.080699,-12.283588
577,228350903,-31.687754,-3.421194,163.939972,-0.169158,0.007813,-0.221332,5.386438,-2.336725,-13.779912
578,228367570,-31.618279,-3.609776,163.779510,-0.039197,-0.040257,-0.265346,2.769753,-4.648414,-14.090710
579,228384237,-31.559887,-3.823455,163.642807,-0.068823,0.105888,-0.476381,2.163398,-6.693129,-13.659827
580,228400904,-31.461170,-4.036999,163.523590,-0.032147,0.373665,-0.728889,4.624613,-7.251397,-12.753098
581,228417571,-31.309523,-4.247901,163.432358,0.056476,0.406675,-0.732606,7.895883,-8.016986,-11.222098
582,228434238,-31.103474,-4.446894,163.372269,0.178054,0.212520,-0.391707,11.283615,-8.405558,-9.233182
583,228450905,-30.901155,-4.610677,163.335342,-0.030998,0.135576,-0.355408,11.159556,-7.342565,-6.925922
584,228467572,-30.778261,-4.711442,163.308548,-0.282950,0.208518,-0.528287,6.438081,-4.425838,-4.446917
585,228484239,-30.681562,-4.748750,163.285980,-0.306114,0.660986,-0.525912,4.885681,-1.289305,-2.274869
586,228500906,-30.541632,-4.741580,163.263367,-0.130370,1.047484,-0.366366,7.480093,1.006022,-0.914386
587,228517573,-30.373627,-4.709016,163.249527,-0.177633,0.952622,-0.238242,9.212999,2.052737,0.307551
588,228534240,-30.203421,-4.664244,163.240540,-0.378777,1.330017,-0.235670,9.372990,2.540941,0.923242
589,228550907,-30.061583,-4.609381,163.216873,-0.696683,1.749511,-0.239660,7.603548,3.510995,0.462162
590,228567574,-29.999567,-4.537189,163.152374,-0.890788,2.401069,-0.158857,2.627332,5.638784,-1.136384
591,228584241,-30.035830,-4.460969,163.000946,-1.034625,3.522038,-0.045716,-3.665537,8.455120,-5.515607
592,228600908,-30.160469,-4.394442,162.697983,-1.137828,5.036756,-0.014932,-9.647101,12.514632,-13.635093
593,228617575,-30.401596,-4.319219,162.165100,-1.572364,6.408254,-0.089462,-17.643124,19.956671,-25.207218
594,228634242,-30.840965,-4.198818,161.337830,-2.133445,7.565743,0.087865,-30.770306,31.428246,-38.862518
595,228650909,-31.516525,-4.033062,160.204330,-2.469197,9.066129,0.479525,-46.109566,43.645046,-52.821693
596,228667576,-32.287598,-3.804389,158.787369,-2.987743,10.934968,0.305932,-52.736889,56.514145,-64.678360
597,228684243,-32.941231,-3.443708,157.079071,-3.867475,13.305136,-0.587442,-46.322479,73.433952,-74.403450
598,228700910,-33.340565,-2.817944,155.114914,-4.966863,14.532578,-1.530092,-30.981178,95.877747,-77.884842
599,228717577,-33.582069,-1.784415,152.847870,-5.389225,14.484714,-2.565169,-20.496082,126.821068,-79.042923
600,228734244,-33.766483,-0.336112,150.109146,-4.205970,14.736845,-3.729215,-14.615591,163.605255,-88.359169
601,228750911,-33.922157,1.466006,146.803391,-2.536487,15.205733,-4.750149,-7.865311,200.496185,-104.285217
602,228767578,-34.072216,3.647297,142.712067,-0.011942,15.118002,-6.312963,1.494966,245.891266,-129.878342
603,228784245,-34.261883,6.165337,137.480652,3.755696,13.183991,-7.287943,14.824102,299.597809,-171.672699
604,228800912,-34.777542,9.066256,131.222366,6.407528,5.304565,-6.914168,18.044823,353.036957,-205.449783
605,228817579,-36.081249,12.427210,124.018166,9.234554,-5.112805,-5.712975,2.035228,410.721313,-228.858429
606,228834246,-38.241100,15.715859,115.521767,15.601704,-20.677011,0.801464,-5.910388,456.085419,-274.637207
607,228850913,-40.912872,17.457823,106.602074,16.720564,-47.995972,16.273371,-7.819514,407.505951,-328.384460
608,228867580,-42.789940,16.813725,99.102264,-3.505873,-46.926815,18.749615,19.447369,258.359283,-345.664825
609,228884247,-42.093925,16.114658,95.465111,-22.035217,-23.372999,-0.723510,102.861786,110.392265,-182.507690
610,228900914,-39.717133,15.967395,95.823235,-1.230378,-6.242564,-6.836945,135.828033,-20.140215,9.972773
611,228917581,-35.839405,16.297165,98.705124,10.535985,-3.200120,-1.911982,183.726547,-86.085098,143.547348
612,228934248,-31.517467,16.815722,103.017464,-0.461438,-12.340184,-0.605257,184.667130,-111.643929,223.773071
613,228950915,-28.464745,16.371492,107.124969,-5.841837,-17.213854,4.230501,111.891945,-141.166443,191.335587
614,228967582,-28.443392,15.016993,110.249298,-1.180170,-12.973134,2.014338,-50.290810,-157.498795,120.004662
615,228984249,-31.191944,13.349798,113.015999,3.875373,-8.854995,-0.855281,-206.437943,-166.940857,89.931175
616,229000916,-33.998356,12.014956,116.035309,7.434658,-5.694364,0.581973,-209.010696,-162.841202,105.764191
617,229017583,-35.215656,11.152069,119.517685,8.549369,-3.954416,1.599951,-115.863518,-159.031525,139.035202
618,229034250,-34.604805,10.425172,123.265533,7.945011,-1.890530,1.151138,-6.341046,-162.370667,156.127289
619,229050917,-33.043812,9.708648,126.932281,4.807974,-2.484478,0.837477,54.289043,-156.511307,155.957642
620,229067584,-31.858305,8.878862,130.351028,3.074862,-4.260151,1.454292,37.093369,-150.869217,144.032471
621,229084251,-31.592890,7.724778,133.553894,2.622750,-4.270124,1.707099,-12.736814,-159.145813,125.249130
622,229100918,-31.896236,6.253806,136.492706,2.596221,-2.312401,1.301007,-40.581615,-167.404694,102.306931
623,229117585,-32.236965,4.615697,139.212479,1.815852,-0.193948,0.325112,-36.841946,-169.815948,85.387177
624,229134252,-32.408260,3.073716,141.748688,1.234099,1.728067,-0.468219,-21.438053,-159.645737,78.728889
625,229150919,-32.495316,1.674802,144.171661,0.540900,2.185181,-0.919518,-12.210397,-149.049866,77.427147
626,229167586,-32.468094,0.479769,146.432663,-0.212064,1.638790,-1.713156,-1.888646,-133.602814,75.807426
627,229184253,-32.459904,-0.608212,148.530930,-0.372825,0.271162,-2.038591,-0.345437,-122.927193,71.082687
628,229200920,-32.624897,-1.594050,150.504364,-0.249518,1.050403,-1.398561,-8.612215,-113.813461,67.881348
629,229217587,-32.894157,-2.508561,152.370804,-0.628810,2.420575,-1.020075,-13.142426,-106.965965,64.329865
630,229234254,-33.078930,-3.256201,154.110474,-0.765280,3.836597,-1.435778,-6.834741,-94.640427,62.933083
631,229250921,-32.935570,-3.792417,155.705841,-0.898147,5.676918,-2.462514,13.491707,-79.271347,62.512878
632,229267588,-32.320778,-4.150490,157.090073,-1.405042,7.191086,-3.604773,41.658436,-63.001480,58.123421
633,229284255,-31.505642,-4.427967,158.144379,-1.930852,7.420210,-3.937299,52.678062,-47.697563,44.685867
634,229300922,-30.853714,-4.481036,158.916473,-3.512251,7.209581,-3.368459,41.777302,-26.837519,37.819149
635,229317589,-30.626593,-4.431641,159.221359,-1.943168,5.703227,-2.116271,14.134925,-6.953694,17.156330
636,229334256,-30.804529,-4.404058,159.087708,-2.003481,6.212427,-0.364401,-12.187785,5.342755,-6.052861
637,229350923,-30.834835,-4.296452,158.677612,-0.886476,6.386257,0.581596,-4.554576,17.967409,-17.778227
638,229367590,-30.815559,-4.243513,158.012405,-0.575145,5.544699,-0.306924,-2.659458,22.990017,-32.562454
639,229384257,-30.759029,-4.212240,157.228546,-0.972328,4.642645,-0.427960,-0.895785,25.498552,-39.338844
640,229400924,-30.730434,-4.138431,156.457199,-1.536780,2.433898,-0.140338,-2.455713,27.294588,-37.407307
641,229417591,-30.765898,-4.049446,155.755020,-1.832107,0.990317,0.349705,-5.928610,25.975229,-33.378521
642,229434258,-30.806086,-3.957297,155.181305,-1.678780,0.316060,0.534344,-5.606362,22.237661,-26.659132
643,229450925,-30.841204,-3.852450,154.783829,-1.398183,0.030578,0.229732,-4.524032,17.512945,-17.192268
644,229467592,-30.865875,-3.732153,154.595428,-1.209273,0.063080,0.055575,-3.023965,11.905911,-5.961987
645,229484259,-30.879965,-3.606094,154.567215,-0.856731,0.414635,-0.043965,-1.750910,7.288805,2.452794
646,229500926,-30.905424,-3.473286,154.625793,-0.656114,0.418256,-0.014488,-2.108143,4.970318,7.126690
647,229517593,-30.936792,-3.319320,154.723679,-0.498480,0.576574,0.079795,-2.332319,4.849414,9.802617
648,229534260,-30.974047,-3.174873,154.818115,-0.150500,0.619175,-0.156044,-2.711682,4.461869,9.337978
649,229550927,-31.043001,-3.044397,154.899399,-0.011907,0.367229,-0.212032,-4.668890,4.141658,8.237374
650,229567594,-31.160990,-2.916714,154.988144,0.209545,0.257230,-0.253861,-7.596563,3.755316,8.539834
651,229584261,-31.299099,-2.797057,155.080811,0.314069,0.279346,-0.443551,-8.804460,3.200840,8.502172
652,229600928,-31.397728,-2.691019,155.179810,0.194420,0.286401,-0.557788,-6.425178,2.288284,8.406250
653,229617595,-31.450094,-2.596444,155.270264,0.231940,0.153626,-0.359674,-3.683811,1.956420,7.615047
654,229634262,-31.486719,-2.522497,155.332001,0.339970,0.140247,-0.361488,-2.823416,1.793369,5.502025
655,229650929,-31.533085,-2.471084,155.353333,0.255602,0.507731,-0.645613,-3.517161,1.901224,2.732293
656,229667596,-31.550245,-2.423087,155.358597,0.214329,0.532943,-0.625279,-1.805452,2.229451,1.805228
657,229684263,-31.547848,-2.384719,155.349319,0.167014,0.327343,-0.625093,-0.666788,2.193248,0.760012
658,229700930,-31.557493,-2.348386,155.331284,-0.086010,0.321329,-0.708048,-1.408903,2.364020,0.249500
659,229717597,-31.583300,-2.316567,155.326080,-0.124050,0.244958,-0.546926,-2.346341,1.731514,0.764686
660,229734264,-31.557079,-2.291544,155.334412,-0.076307,0.354253,-0.379993,0.808010,0.960470,1.243324
661,229750931,-31.485826,-2.268449,155.359390,-0.185864,0.309948,-0.476459,3.550323,0.342602,2.032797
662,229767598,-31.459213,-2.251123,155.397232,-0.182261,0.269040,-0.417697,0.902239,-0.352712,2.510998
663,229784265,-31.513290,-2.238588,155.443878,-0.174070,0.531612,-0.396100,-3.918781,-0.872369,2.810795
664,229800932,-31.598671,-2.248457,155.487137,-0.117868,0.823378,-0.335559,-5.803224,-1.913781,1.935097
665,229817599,-31.645794,-2.286083,155.507645,-0.081098,0.918937,-0.208686,-3.559205,-2.615927,-0.102182
666,229834266,-31.633755,-2.331905,155.524521,-0.245237,0.578096,-0.205568,-0.014382,-2.919118,-0.543668
667,229850933,-31.646244,-2.378437,155.560822,-0.381802,0.137996,-0.280437,-1.435784,-3.564251,0.426535
668,229867600,-31.732445,-2.428872,155.619095,-0.398066,0.109178,-0.352050,-5.801508,-4.453537,1.421268
669,229884267,-31.860397,-2.479097,155.718658,-0.402614,0.521579,-0.339275,-8.198857,-5.747517,3.524059
670,229900934,-31.936644,-2.529417,155.849731,-0.450628,1.081893,-0.216715,-5.007835,-6.754057,5.115184
671,229917601,-31.938686,-2.576953,155.986923,-0.646635,1.548839,-0.205989,-0.529671,-6.806358,5.512039
672,229934268,-31.954201,-2.623610,156.089340,-0.887348,2.313328,-0.278740,-1.421774,-5.655375,3.773117
673,229950935,-32.050945,-2.658361,156.117355,-1.135654,3.254652,-0.286560,-6.489312,-2.681830,0.366896
674,229967602,-32.230713,-2.662867,156.042847,-1.387140,4.213631,-0.224021,-11.745592,2.132175,-3.871387
675,229984269,-32.481262,-2.613619,155.860367,-1.713827,4.736736,-0.151469,-16.273216,8.346453,-7.596916
676,230000936,-32.820065,-2.508788,155.573853,-2.083359,5.133678,-0.218809,-21.817841,14.572532,-10.997419
677,230017603,-33.280918,-2.331021,155.190338,-2.592993,5.480337,-0.395341,-29.328180,21.505724,-13.373769
678,230034270,-33.864944,-2.095889,154.702881,-2.931469,6.004619,-0.331589,-36.860477,27.961697,-16.456619
679,230050937,-34.537781,-1.819159,154.097931,-3.396729,6.639210,-0.091142,-42.280727,34.188988,-20.562262
680,230067604,-35.223408,-1.457395,153.347305,-3.688184,7.412056,0.109573,-43.076721,43.640999,-24.394421
681,230084271,-35.864967,-0.998141,152.377960,-3.558182,8.473927,-0.261735,-40.371685,56.337994,-31.148317
682,230100938,-36.425632,-0.389331,151.166824,-3.771218,9.237803,-1.145089,-35.129120,72.497780,-36.961388
683,230117605,-36.940453,0.430477,149.669876,-4.026643,9.920442,-2.015219,-31.442705,93.272438,-42.447136
684,230134272,-37.457195,1.462775,147.739853,-3.266886,10.613726,-2.726529,-29.655371,119.538162,-54.551586
685,230150939,-37.928185,2.675067,145.219009,-1.546060,11.196395,-3.421222,-23.340282,150.204788,-74.869339
686,230167606,-38.248707,4.056399,141.906479,1.030113,11.820089,-4.368569,-8.084931,187.879654,-104.736313
687,230184273,-38.480957,5.644569,137.704758,3.115991,10.069559,-4.718268,6.676554,229.454849,-135.646439
688,230200940,-38.869507,7.449328,132.613693,5.740432,4.967937,-3.685542,10.724879,272.848297,-166.866653
689,230217607,-39.508911,9.378247,126.482513,10.017796,-1.461172,-1.902672,14.526790,318.013123,-206.201294
690,230234274,-40.020584,11.197234,119.424438,15.804603,-11.959595,1.311447,44.422813,350.661194,-250.124893
691,230250941,-39.651463,12.513479,112.035545,18.152552,-27.744093,4.716129,112.618202,338.822113,-282.225922
692,230267608,-37.443207,12.904685,105.491028,9.720653,-38.429420,6.533203,218.140747,257.313568,-284.656128
693,230284275,-33.646641,13.005953,101.266502,-8.998973,-28.116682,2.020095,283.881439,148.715820,-197.264893
694,230300942,-30.124922,13.520017,100.563904,-12.944736,-11.281713,-1.679366,220.257629,47.932663,-18.383514
695,230317609,-28.559958,13.942593,102.392265,-4.400928,-8.121254,-1.707537,67.073265,-30.083397,105.450333
696,230334276,-28.658361,14.127370,105.569359,-2.812259,-12.382658,1.749434,-52.933136,-78.812538,167.768875
697,230350943,-29.726025,13.670159,109.092278,-0.503094,-15.507427,4.254526,-115.643654,-124.058205,165.829544
698,230367610,-31.567499,12.534977,112.182228,2.905109,-12.599566,1.917574,-153.343964,-150.728485,120.679596
699,230384277,-34.270283,11.106678,115.156075,5.915846,-9.295221,-0.114368,-199.550552,-166.992798,100.052078
700,230400944,-36.648869,9.889687,118.485153,7.815950,-6.258439,1.820858,-179.944016,-173.587845,117.594452
701,230417611,-37.642479,9.046613,122.177155,6.963212,-4.457958,2.821098,-96.911919,-172.454086,143.561783
702,230434278,-37.381233,8.401131,126.017212,4.506651,-3.702116,1.414015,-20.158405,-169.611755,156.973831
703,230450945,-36.778587,7.825904,129.780685,2.916701,-4.265685,0.432427,3.380724,-162.555054,157.427277
704,230467612,-36.500004,7.195873,133.416809,2.731207,-4.325938,0.375117,-12.725190,-159.665375,150.875397
705,230484279,-36.669357,6.276435,136.850403,2.609045,-3.231392,0.416949,-35.268208,-166.503723,131.273270
706,230500946,-36.935719,5.137158,140.103485,2.055870,-1.564596,-0.239215,-36.353806,-171.356232,114.421516
707,230517613,-37.087158,3.943036,143.230927,1.210066,-0.116426,-1.050042,-24.927635,-170.094452,106.093735
708,230534280,-37.159306,2.861846,146.307007,0.271566,0.669283,-1.705905,-16.287376,-163.197006,107.603043
709,230550947,-37.207756,1.983010,149.325546,-0.580770,0.858660,-2.258371,-11.584903,-151.645981,112.151520
710,230567614,-37.302197,1.271560,152.208435,-0.714873,0.762137,-2.397459,-11.616368,-138.913971,111.643463
711,230584281,-37.433926,0.658541,154.987656,-0.274624,0.512222,-2.083958,-11.765104,-130.685333,110.054718
712,230600948,-37.655907,0.162140,157.683517,-0.160353,1.070248,-2.410615,-15.542285,-122.432976,109.970222
713,230617615,-37.923439,-0.167318,160.235443,-1.072074,3.567047,-2.556745,-17.120703,-109.689857,108.769051
714,230634282,-38.096004,-0.332876,162.547272,-1.498557,6.479752,-1.933475,-10.824542,-93.474083,103.062408
715,230650949,-37.951683,-0.396076,164.556305,-0.298892,9.970790,-1.691376,8.364137,-77.452560,92.523064
716,230667616,-37.387173,-0.495694,166.230072,-1.259926,11.717257,-1.932927,33.622444,-66.301086,75.753906
717,230684283,-36.679222,-0.484958,167.551727,-0.784562,9.828077,-1.668821,42.171597,-47.429928,63.620762
718,230700950,-36.097610,-0.752809,168.132263,-2.314017,8.772774,-0.537053,34.329681,-33.776218,18.448494
719,230717617,-35.394165,-1.138253,168.021011,-2.188864,8.849677,1.563207,41.189194,-15.032034,-18.969826
720,230734284,-35.210850,-1.695133,167.225189,-1.111245,7.220728,0.531125,8.950372,0.171575,-58.295937
721,230750951,-35.522480,-2.270518,166.055267,-0.975032,5.634621,0.086438,-21.958277,12.321052,-77.213715
722,230767618,-36.018124,-2.765355,164.781128,-1.229891,2.792660,-0.607322,-33.902187,20.433292,-79.340103
723,230784285,-36.461926,-3.125278,163.645447,-1.631374,0.690272,-0.693397,-30.920937,22.702065,-67.666229
724,230800952,-36.717758,-3.356915,162.759872,-1.919686,-0.243858,-0.787466,-19.142979,20.361992,-50.887951
725,230817619,-36.752254,-3.454537,162.184967,-2.159163,-0.507388,-0.694466,-4.911859,15.808848,-31.102430
726,230834286,-36.667072,-3.427476,161.867493,-1.986720,-0.223077,-1.026582,3.170812,12.583158,-14.270264
727,230850953,-36.584007,-3.299683,161.734955,-1.565431,0.096470,-1.122486,3.715938,10.812439,-1.788741
728,230867620,-36.538948,-3.096725,161.697784,-1.106672,0.766302,-0.960816,1.774686,11.036999,5.477324
729,230884287,-36.522900,-2.850907,161.687988,-0.476445,0.990620,-0.335255,0.131284,12.135030,8.323704
730,230900954,-36.527386,-2.597125,161.677094,0.057924,0.949338,0.155633,-1.098837,12.561277,8.557522
731,230917621,-36.547226,-2.402543,161.638977,0.168116,0.987194,0.113184,-2.085477,10.678688,5.135150
732,230934288,-36.544224,-2.267593,161.568192,0.123068,0.826224,-0.024540,-0.783429,8.970702,1.433537
733,230950955,-36.549179,-2.176000,161.458878,0.026571,0.518543,-0.287041,-1.340070,8.256915,-1.969797
734,230967622,-36.584793,-2.119790,161.338730,0.046631,0.199541,-0.304306,-3.193046,6.941600,-3.753657
735,230984289,-36.594597,-2.085676,161.242630,0.241161,-0.030187,-0.120198,-1.585542,5.019495,-3.382606
736,231000956,-36.539944,-2.089559,161.186020,0.148030,-0.071710,-0.131543,2.370218,1.776593,-2.842190
737,231017623,-36.452942,-2.104019,161.172989,0.049177,-0.027795,-0.351408,4.404520,-0.291831,-1.120709
738,231034290,-36.358219,-2.118503,161.191483,-0.056388,0.313041,-0.594191,4.937034,-1.416869,0.400666
739,231050957,-36.276569,-2.114862,161.210220,-0.307231,0.411520,-0.762095,4.154463,-0.547305,1.058592
740,231067624,-36.247150,-2.089246,161.216064,-0.122930,0.328510,-0.551421,0.991679,0.975492,1.217416
741,231084291,-36.251781,-2.070817,161.210846,0.052613,0.286505,-0.326065,-1.073480,1.021928,0.427470
742,231100958,-36.229492,-2.061316,161.204727,0.091306,0.375617,-0.394259,0.538987,0.621370,0.068636
743,231117625,-36.148785,-2.055400,161.208160,-0.037466,0.550219,-0.659377,4.066522,0.110948,0.402753
744,231134292,-36.037025,-2.035958,161.227600,-0.226283,0.492898,-0.785310,5.965576,0.203320,1.656239
745,231150959,-35.942703,-2.009034,161.263351,-0.248699,0.306354,-0.490733,4.953721,-0.004124,2.712968
746,231167626,-35.889217,-1.988642,161.297852,-0.108534,0.339749,-0.222558,2.501266,-0.273095,2.423774
747,231184293,-35.853706,-1.988261,161.325241,-0.113580,0.649952,-0.212854,1.407207,-0.993030,1.375498
748,231200960,-35.766834,-1.991350,161.357864,-0.229020,0.824271,-0.336634,4.502142,-1.342349,1.509645
749,231217627,-35.623062,-1.990372,161.398056,-0.404933,0.687909,-0.446115,7.934988,-1.404447,2.025369
750,231234294,-35.502701,-1.975631,161.456955,-0.517499,0.547992,-0.485337,6.569972,-1.377899,3.422606
751,231250961,-35.440105,-1.947110,161.543259,-0.532558,0.702609,-0.419463,3.160370,-1.650790,5.245513
752,231267628,-35.391972,-1.903651,161.659363,-0.632389,0.758976,-0.379421,2.349921,-1.948243,7.225055
753,231284295,-35.330387,-1.849956,161.806030,-0.631113,0.816320,-0.319660,3.213287,-2.498328,9.079237
754,231300962,-35.277489,-1.798705,161.969925,-0.737840,1.125870,-0.269114,2.718373,-3.202293,9.841345
755,231317629,-35.247658,-1.740100,162.135712,-0.804345,1.887719,-0.256325,1.331957,-2.897912,10.195429
756,231334296,-35.268070,-1.670539,162.269318,-0.947546,2.709421,-0.209994,-1.745929,-1.240577,9.001580
757,231350963,-35.381084,-1.579522,162.332275,-1.167592,3.762478,-0.296610,-7.422691,2.254783,6.292869
758,231367630,-35.563915,-1.454840,162.281982,-1.576756,5.070762,-0.477166,-11.785232,7.834169,1.944563
759,231384297,-35.786003,-1.263902,162.066422,-1.982636,6.053761,-0.463526,-14.348578,16.849375,-3.753573
760,231400964,-36.120018,-1.016809,161.639954,-2.232043,6.742426,-0.252260,-21.244091,27.037971,-11.925008
761,231417631,-36.630253,-0.730044,160.954697,-2.680586,7.744800,-0.261199,-31.909180,38.268154,-22.803535
762,231434298,-37.238415,-0.411505,159.941391,-2.908442,9.663452,-0.284423,-37.736778,51.861591,-37.000568
763,231450965,-37.792770,-0.073559,158.538986,-3.036610,11.502063,-0.203285,-34.223862,67.402580,-54.263035
764,231467632,-38.137821,0.360183,156.713669,-3.219602,12.882133,-0.541963,-20.996096,87.997368,-70.175171
765,231484299,-38.275467,1.010011,154.411331,-3.488178,12.984061,-1.160600,-7.134169,116.208961,-84.236115
766,231500966,-38.438217,1.984076,151.601746,-3.267953,11.555670,-2.321548,-5.853992,150.577179,-95.653084
767,231517633,-38.810299,3.181280,148.164444,-1.590168,10.585644,-3.170864,-13.494543,184.931076,-115.860992
768,231534300,-39.291389,4.544157,144.038177,0.635947,9.804090,-3.836047,-12.631634,219.358612,-140.011688
769,231550967,-39.697926,6.135321,139.112686,2.947638,8.087403,-4.966455,2.454404,259.601196,-164.213730
770,231567634,-40.002911,8.008528,133.338745,5.687344,4.391181,-5.636420,23.561680,305.082703,-189.431854
771,231584301,-40.259861,10.227086,126.695641,9.118935,-2.020545,-5.495162,46.751282,353.588959,-212.240417
772,231600968,-40.346088,12.704914,119.216599,14.013968,-12.905767,-2.851418,83.516144,398.053741,-238.916031
773,231617635,-40.233101,14.862174,111.457741,15.215705,-32.221027,4.668451,117.117653,391.282867,-260.865021
774,231634302,-40.124985,15.600999,104.595749,3.097319,-45.893620,12.605110,114.025810,290.360321,-274.576080
775,231650969,-39.483967,15.393264,100.416801,-18.317322,-31.498247,4.884336,104.751343,145.216034,-193.356033
776,231667636,-38.513538,15.375350,100.294998,-12.337798,-11.311782,-5.349390,59.364891,3.637478,-6.009749
777,231684303,-36.975918,15.629801,102.959320,4.625583,-3.958112,-0.814119,48.652504,-82.208076,131.253571
778,231700970,-34.525745,16.182066,107.415596,0.013455,-11.117716,1.516757,72.817703,-123.363411,228.123703
779,231717637,-33.179256,16.008974,112.111656,-4.110238,-17.982517,3.584162,1.769469,-159.465195,219.092117
780,231734304,-33.712799,14.823283,116.330414,1.307569,-16.012928,4.670947,-100.199417,-193.921188,164.429871
781,231750971,-36.467480,13.164244,120.148560,5.664751,-10.867542,1.489522,-221.561035,-209.381485,124.671608
782,231767638,-39.535980,11.584675,123.920792,9.789860,-4.211587,2.039930,-233.506134,-210.978348,115.821091
783,231784305,-40.874668,10.431301,127.801666,9.352335,-0.296940,1.921886,-125.711624,-200.583786,129.811798
784,231800972,-40.112434,9.682106,131.813538,7.759535,1.572545,1.531391,2.733865,-188.288300,150.943375
785,231817639,-38.432312,9.200554,135.742950,4.612423,0.372475,0.385945,61.153812,-169.806763,161.637085
786,231834306,-37.239487,8.856776,139.519669,2.248724,-2.419714,0.272176,35.039940,-153.801041,163.973694
787,231850973,-36.885899,8.375962,143.101990,2.207963,-3.122294,1.289525,-11.959517,-151.340408,152.067520
788,231867640,-37.059090,7.510419,146.394897,2.690311,-2.079735,1.876125,-38.683498,-159.423447,124.971191
789,231884307,-37.403172,6.321814,149.417435,2.897432,-0.341269,0.881516,-43.487957,-165.956619,100.061241
790,231900974,-37.581669,5.036130,152.266495,2.284236,1.210140,-0.709142,-28.646317,-164.994019,87.878716
791,231917641,-37.468643,3.872913,155.049942,0.715491,1.326901,-2.421969,-7.222832,-157.024307,89.404053
792,231934308,-37.087254,2.868932,157.803360,-0.326890,0.545871,-2.841698,12.123707,-148.072098,94.611221
793,231950975,-36.598820,1.993191,160.563858,-0.360165,0.208903,-2.025783,21.218592,-141.523422,100.802872
794,231967642,-36.195400,1.252886,163.297852,-0.564021,1.709029,-1.604290,18.484436,-133.293304,105.516365
795,231984309,-35.818409,0.677138,165.888565,-1.540376,3.424675,-2.074872,18.920658,-119.548119,105.314194
796,232000976,-35.324940,0.299453,168.257462,-1.994202,6.414793,-3.006800,27.317415,-101.335083,102.332199
797,232017643,-34.370750,0.007107,170.337204,-3.108851,10.797166,-3.694549,55.851513,-85.907104,92.309814
798,232034310,-33.171478,-0.079165,172.169434,-4.279386,11.508876,-2.358253,70.997139,-65.604553,88.451485
799,232050977,-32.234745,-0.099521,173.291672,-1.174116,9.142627,-2.231594,55.328964,-37.577541,55.964874
800,232067644,-32.064194,-0.227181,173.557983,-3.118883,8.898606,-1.276449,9.340627,-15.149076,9.425328
801,232084311,-32.257088,-0.255116,173.122177,-2.194073,8.579412,-1.156118,-12.584825,12.354103,-23.044426
802,232100978,-32.658268,-0.361335,172.123886,-0.856555,7.083390,-0.822171,-25.253128,26.635830,-53.968674
803,232117645,-32.861629,-0.517113,170.842697,-0.726430,4.382504,0.040970,-13.617928,33.612331,-69.702820
804,232134312,-32.905083,-0.687823,169.588806,-1.229901,0.711081,0.367912,-4.203514,32.128593,-68.736504
805,232150979,-32.998791,-0.823410,168.568985,-1.986398,-1.395626,0.456944,-7.229500,26.346561,-55.760872
806,232167646,-33.191650,-0.941721,167.853821,-2.220422,-1.434031,0.496566,-13.039300,17.382404,-39.811291
807,232184313,-33.297771,-1.061525,167.428375,-2.077715,-0.556290,0.638178,-7.628327,7.890697,-25.271770
808,232200980,-33.306416,-1.169445,167.236740,-1.781524,-0.154079,0.495924,-1.561851,0.818999,-13.144395
809,232217647,-33.351227,-1.256532,167.213364,-1.357611,0.367058,0.384780,-3.540290,-3.669083,-4.019478
810,232234314,-33.479477,-1.316372,167.258377,-1.070656,0.996069,-0.050366,-8.456585,-4.552812,0.304772
811,232250981,-33.651821,-1.330728,167.294342,-0.723123,1.205947,-0.636806,-11.108937,-1.972576,1.350219
812,232267648,-33.843719,-1.304674,167.289413,-0.472239,1.293583,-0.825052,-12.336529,1.405222,0.655013
813,232284315,-34.006596,-1.262858,167.243683,-0.153996,1.126653,-0.822820,-10.643950,3.557164,-0.841429
814,232300982,-34.124779,-1.200530,167.190002,-0.118638,0.471169,-0.806008,-7.966269,4.848056,-0.537329
815,232317649,-34.244057,-1.128541,167.142593,0.090226,-0.018659,-0.660814,-8.019068,5.118577,0.110602
816,232334316,-34.331631,-1.053848,167.109909,0.092496,0.052186,-0.608644,-6.095913,4.755107,0.940774
817,232350983,-34.352989,-0.974497,167.099518,0.028550,0.200664,-0.740556,-2.097681,4.230687,2.207206
818,232367650,-34.333740,-0.908999,167.093430,0.011104,0.228813,-0.683557,0.343050,3.399286,1.951566
819,232384317,-34.292591,-0.868294,167.067520,0.061852,0.330648,-0.464247,1.639655,2.841582,0.130695
820,232400984,-34.226658,-0.853906,167.029663,0.130760,0.182005,-0.306072,3.118724,1.941129,-1.353759
821,232417651,-34.171169,-0.869475,166.983124,0.065611,0.018069,-0.351473,2.483760,0.745567,-2.796356
822,232434318,-34.167919,-0.899550,166.929932,-0.095273,0.118037,-0.405266,-0.657516,0.248629,-3.616219
823,232450985,-34.193600,-0.938725,166.871155,-0.129969,0.201213,-0.494958,-2.400972,-0.012742,-4.200124
824,232467652,-34.192425,-0.983207,166.812714,-0.119729,0.279138,-0.628170,-0.791573,-0.286376,-4.360434
825,232484319,-34.143063,-1.025270,166.766953,0.009995,0.159001,-0.564983,2.110544,-0.593882,-3.649451
826,232500986,-34.070408,-1.061897,166.746323,-0.000288,0.050092,-0.509357,3.534098,-1.172946,-2.216971
827,232517653,-34.003914,-1.085104,166.744705,-0.114586,0.207476,-0.561844,3.185138,-1.146437,-0.819670
828,232534320,-33.934906,-1.094655,166.757004,-0.240610,0.569311,-0.650206,3.351326,-0.933711,0.332651
829,232550987,-33.860294,-1.084137,166.769104,-0.331214,0.676662,-0.639138,3.689631,0.074821,0.995854
830,232567654,-33.784683,-1.047732,166.777649,-0.279873,0.776811,-0.429836,3.747324,1.486683,1.685194
831,232584321,-33.708397,-1.000930,166.777039,-0.288841,0.848324,-0.381330,3.780121,2.315087,1.573497
832,232600988,-33.612362,-0.957245,166.764893,-0.373647,0.926814,-0.387244,4.955334,2.546319,0.893057
833,232617655,-33.512291,-0.919939,166.746918,-0.409949,0.898694,-0.339343,5.197131,2.425478,0.386067
834,232634322,-33.435219,-0.900974,166.712753,-0.523193,1.216766,-0.423738,3.803428,2.045692,-1.032422
835,232650989,-33.355373,-0.897797,166.654358,-0.649250,1.896863,-0.459466,3.952379,2.056783,-2.768323
836,232667656,-33.250546,-0.886522,166.543228,-0.800321,2.768142,-0.650589,5.408463,4.199786,-5.146361
837,232684323,-33.176537,-0.865115,166.320175,-0.889499,3.718977,-0.822727,3.469505,8.383408,-10.432994
838,232700990,-33.176899,-0.809389,165.938400,-1.034368,4.504029,-0.932944,-1.108712,15.318876,-17.277683
839,232717657,-33.294907,-0.699284,165.362076,-1.180015,4.979024,-0.897240,-8.269381,24.471437,-25.230328
840,232734324,-33.581570,-0.547701,164.563324,-1.244998,5.226648,-0.706622,-18.435595,34.001637,-34.901146
841,232750991,-34.029087,-0.357113,163.546631,-1.422172,5.695544,-0.476536,-28.026230,43.458206,-44.240074
842,232767658,-34.540089,-0.113378,162.321503,-1.676795,6.682741,-0.553642,-31.635654,53.520199,-52.401478
843,232784325,-34.990932,0.219673,160.928757,-1.975974,7.662514,-0.797845,-27.621313,64.112762,-57.144039
844,232800992,-35.337006,0.676351,159.394470,-2.240858,8.349884,-0.671338,-20.666449,75.482040,-59.349762
845,232817659,-35.690365,1.229448,157.753372,-2.575871,8.174541,0.148707,-20.158720,84.290184,-60.715054
846,232834326,-36.104115,1.909665,155.948578,-2.805415,8.563589,0.320866,-22.429712,96.640923,-63.590816
847,232850993,-36.423676,2.740639,153.836807,-2.707707,9.909376,-0.192550,-14.582285,115.221535,-72.395409
848,232867660,-36.591976,3.766207,151.361694,-2.427268,9.934397,-0.995263,-2.196271,137.830078,-82.342201
849,232884327,-36.822235,4.976332,148.388199,-1.744527,9.123094,-2.228489,-0.721629,164.727890,-98.961761
850,232900994,-37.235847,6.312066,144.688599,0.255445,9.342473,-3.060587,-3.472874,197.223618,-127.800941
851,232917661,-37.786160,7.767164,140.108032,2.548908,9.422252,-3.536241,-0.114444,234.067276,-160.893677
852,232934328,-38.438202,9.458486,134.625748,5.263460,6.737853,-3.403442,9.249302,279.073151,-190.661728
853,232950995,-39.292496,11.397064,128.117584,8.715126,1.014231,-2.938388,18.359659,329.699677,-223.069824
854,232967662,-40.316193,13.459023,120.754456,12.668045,-8.182594,-0.985686,33.213615,371.432709,-251.899460
855,232984329,-41.166317,15.258776,112.932709,14.016939,-21.809141,4.018064,64.885880,378.714661,-273.643463
856,233000996,-41.676151,15.912244,105.530655,6.413563,-38.157585,10.900759,88.157928,312.628082,-294.462830
857,233017663,-41.339073,15.278311,99.885071,-10.217459,-35.142204,7.360712,110.600739,187.923340,-269.211365
858,233034330,-39.964890,14.832760,98.179443,-14.639158,-16.903782,-3.719937,108.269287,44.183987,-92.196907
859,233050997,-38.080082,15.003477,99.537178,-1.058945,-5.888130,-6.965432,91.278030,-41.558643,67.744591
860,233067664,-35.162182,15.751616,102.762085,1.617163,-7.827988,-1.512753,122.877266,-75.248306,176.631409
861,233084331,-32.838089,16.080263,106.698563,-5.582463,-15.424533,1.365713,73.785286,-110.673721,199.419144
862,233100998,-32.912960,15.237365,109.893906,-3.063589,-14.652969,3.184572,-57.119545,-142.714127,127.646729
863,233117665,-35.534290,13.826738,112.656235,1.170863,-10.173428,0.482286,-199.750702,-160.309280,85.089661
864,233134332,-38.592026,12.618593,115.583130,5.778445,-6.404673,1.290719,-224.525482,-161.005051,92.735619
865,233150999,-40.101158,11.861207,118.977989,7.725817,-5.206986,2.230976,-134.643951,-161.482147,125.096176
866,233167666,-39.888309,11.426210,122.874664,7.132689,-4.846855,0.831671,-35.352856,-167.318527,158.587830
867,233184333,-38.794598,11.131637,127.015045,5.534493,-4.563254,0.139731,16.070518,-168.289352,177.123718
868,233201000,-37.826244,10.773238,131.114838,3.304247,-4.875346,0.810560,10.393597,-166.785751,176.069183
869,233217667,-37.539536,10.189817,134.994904,2.487269,-4.389945,1.190719,-26.125221,-167.850052,159.659286
870,233234334,-37.815723,9.231458,138.569702,2.700927,-2.610671,1.420657,-53.740017,-174.948654,132.065491
871,233251001,-38.229237,8.064158,141.914261,2.599910,-0.539857,0.952230,-55.991913,-177.599258,113.024246
872,233267668,-38.419247,6.887195,145.115128,2.279352,1.025312,-0.313589,-37.414925,-173.706482,105.471909
873,233284335,-38.214100,5.870555,148.198853,1.630785,2.080647,-1.826779,-9.288269,-162.088470,106.325096
874,233301002,-37.660500,5.025204,151.200348,0.253958,2.086937,-2.085676,15.067049,-150.444336,110.088600
875,233317669,-37.076622,4.295696,154.115753,-0.111239,0.793309,-1.096885,19.762077,-140.821991,111.884056
876,233334336,-36.755257,3.600195,156.930511,-0.150550,0.348670,-1.018124,6.589728,-134.774429,109.538681
877,233351003,-36.749664,3.036750,159.616669,-0.245658,1.458185,-1.308961,-10.066550,-123.568954,108.592422
878,233367670,-36.792187,2.507056,162.179749,-0.243672,2.862698,-1.077148,-11.066854,-117.606079,103.928772
879,233384337,-36.388374,2.010063,164.623459,-0.645988,4.994960,-1.222075,17.369057,-111.464119,99.781189
880,233401004,-35.424576,1.584124,166.889389,-1.643313,6.406294,-1.830599,52.489227,-100.574341,95.013367
881,233417671,-34.270638,1.178439,168.925613,-1.181135,7.976635,-2.332179,65.233795,-89.933937,86.278107
882,233434338,-33.160290,1.056006,170.695969,-2.234730,10.434473,-1.827096,63.522038,-65.218506,84.224358
883,233451005,-32.352402,0.741505,171.742996,-0.497506,9.082991,-2.594518,46.502808,-50.000973,42.594360
884,233467672,-31.429016,0.531491,172.120300,-2.157978,9.636017,-0.190394,54.205849,-22.797924,12.550300
885,233484339,-30.741489,0.322649,171.756485,-0.353601,7.212528,0.385162,40.508717,0.411247,-25.164988
886,233501006,-30.887148,0.066669,170.737106,-0.392018,6.527674,0.455042,-9.403389,18.017826,-60.391571
887,233517673,-31.405924,-0.160899,169.406097,-0.802518,4.775309,0.226816,-32.031147,29.505491,-75.403366
888,233534340,-31.885260,-0.383607,167.999725,-1.525290,1.500620,0.035576,-29.977377,32.789970,-78.833321
889,233551007,-32.318039,-0.579669,166.751419,-1.997724,-0.727824,-0.040432,-27.405590,29.740030,-69.680588
890,233567674,-32.776005,-0.748524,165.835648,-2.409944,-1.790116,-0.113875,-28.927732,20.931574,-51.745132
891,233584341,-33.172173,-0.894601,165.278320,-2.532347,-1.366574,-0.541559,-25.072138,10.767424,-32.796696
892,233601008,-33.355404,-1.026568,165.034653,-2.273593,-0.478752,-0.990052,-12.070246,1.328052,-16.536749
893,233617675,-33.397079,-1.116916,165.010345,-1.877587,0.103646,-1.332969,-3.364447,-3.785673,-4.165574
894,233634342,-33.460526,-1.135317,165.087189,-1.399766,0.589597,-1.239519,-4.554092,-3.514536,3.277190
895,233651009,-33.590290,-1.087937,165.170609,-0.914469,1.258238,-1.167024,-8.526381,-0.441858,5.783842
896,233667676,-33.764061,-0.990612,165.213974,-0.558345,1.450237,-1.114723,-11.211811,3.373764,5.447626
897,233684343,-33.944981,-0.875091,165.194595,-0.173584,1.238620,-0.966386,-11.703168,6.364242,2.942510
898,233701010,-34.083843,-0.767363,165.142563,0.094918,0.907204,-0.794764,-9.200176,7.066157,1.076880
899,233717677,-34.150597,-0.680121,165.101242,0.073370,0.426138,-0.691362,-4.857181,5.686629,0.933410
900,233734344,-34.138561,-0.616484,165.080658,0.058825,-0.219083,-0.422612,-0.111633,3.816735,1.170315
901,233751011,-34.087959,-0.571484,165.084473,0.136288,-0.369488,-0.212516,2.218578,2.070729,1.752414
902,233767678,-34.050144,-0.550306,165.113586,0.140492,-0.292457,-0.011369,1.463529,0.036530,2.208308
903,233784345,-34.048782,-0.571593,165.150970,0.171641,0.125818,0.084054,-0.720805,-2.352014,1.192162
904,233801012,-34.037010,-0.633963,165.178772,0.049751,0.499233,-0.091020,-0.100030,-4.072432,-0.664598
905,233817679,-34.004265,-0.714246,165.169312,0.096110,0.616334,-0.360998,1.135494,-3.712574,-3.116271
906,233834346,-33.987373,-0.791428,165.130295,0.208729,0.513411,-0.321259,0.162980,-2.566828,-4.481787
907,233851013,-34.003113,-0.869289,165.069565,0.215728,0.384836,-0.176151,-1.815428,-1.873377,-5.582800
908,233867680,-34.030903,-0.939077,164.990372,0.046928,0.370582,-0.356241,-2.558479,-0.849215,-6.232083
909,233884347,-34.057255,-0.992573,164.905853,-0.126158,0.365251,-0.549925,-2.481423,0.142387,-5.948256
910,233901014,-34.052708,-1.017502,164.826248,-0.110487,0.354851,-0.622109,-0.625078,1.399727,-4.743869
911,233917681,-34.011906,-1.028320,164.767990,-0.215901,0.384298,-0.593624,1.571948,1.384207,-3.209323
912,233934348,-33.924789,-1.028759,164.739929,-0.356030,0.241871,-0.558681,4.384274,0.886206,-1.359407
913,233951015,-33.824722,-1.034236,164.747208,-0.560413,0.207090,-0.488684,5.198950,-0.547241,0.232250
914,233967682,-33.712353,-1.035770,164.795547,-0.614577,0.223453,-0.425423,5.982352,-1.717370,2.414170
915,233984349,-33.581604,-1.046780,164.894150,-0.589466,0.344482,-0.412781,7.139369,-3.853355,4.613585
916,234001016,-33.401886,-1.070864,165.055313,-0.755437,0.341690,-0.531267,10.148379,-6.563450,7.321876
917,234017683,-33.170937,-1.118137,165.300629,-0.908476,0.549272,-0.485917,13.324826,-10.468769,10.804560
918,234034350,-32.910049,-1.199149,165.630005,-1.376178,0.786782,-0.322755,15.241017,-14.865065,13.974607
919,234051017,-32.703651,-1.303551,166.040970,-2.003422,1.170469,-0.015657,12.110006,-18.633867,17.390667
920,234067684,-32.597958,-1.414555,166.514908,-2.212931,1.839883,0.411029,6.206790,-20.949537,20.411421
921,234084351,-32.614681,-1.535501,166.986298,-1.970439,2.777011,0.760392,-1.078900,-21.344149,19.981453
922,234101018,-32.805096,-1.655435,167.382126,-2.145314,4.215811,0.574417,-11.558709,-18.870794,16.166824
923,234117685,-33.170403,-1.746960,167.601959,-2.370856,6.398861,0.089179,-22.306847,-11.760958,8.154968
924,234134352,-33.631451,-1.796402,167.525803,-2.639050,8.938428,-0.356816,-28.559471,0.073720,-5.350969
925,234151019,-34.078575,-1.738364,167.113251,-3.357490,10.695674,-0.494960,-28.311636,16.727615,-18.500887
926,234167686,-34.495838,-1.506326,166.299408,-3.748029,11.969328,-0.603877,-27.099628,39.073864,-32.365993
927,234184353,-34.898556,-1.179550,164.932999,-3.699153,14.407036,-0.846828,-26.720465,62.873844,-56.086349
928,234201020,-35.120064,-0.745699,162.791138,-4.042982,18.399767,-2.061435,-16.035933,95.166122,-90.146446
929,234217687,-35.010967,-0.031246,159.765305,-4.164249,21.053410,-3.469598,4.785430,139.550598,-123.773712
930,234234354,-34.581364,1.251548,155.770920,-2.025125,20.397591,-4.253395,27.850098,200.165482,-152.650558
931,234251021,-34.035774,2.960549,150.602661,3.031081,18.669228,-5.112722,43.688240,259.599060,-197.920792
932,234267688,-33.326160,4.862514,144.194885,8.731009,15.162906,-4.954305,68.370461,307.931213,-255.624756
933,234284355,-32.342171,7.027952,136.574265,14.179076,7.612824,-4.548620,105.570694,354.109619,-308.399658
934,234301022,-30.969229,9.505461,127.934174,18.847675,-5.263716,-2.589268,155.801880,393.998169,-355.103546
935,234317689,-29.220482,12.298697,118.349152,22.809177,-27.789030,0.300088,213.011444,428.348450,-404.397797
936,234334356,-28.589762,14.151307,108.567116,17.627436,-57.960033,10.164402,171.531860,373.645966,-446.211304
937,234351023,-29.030548,14.191638,100.160355,-11.825203,-53.713806,10.663410,96.515862,238.000763,-427.048096
938,234367690,-28.653519,14.136769,96.858582,-27.048098,-20.273979,-2.458699,70.407028,89.839890,-169.666504
939,234384357,-27.316198,14.372191,98.094986,-1.836119,-1.198636,-7.769383,61.159740,-21.244085,70.235130
940,234401024,-24.050188,14.774465,102.207550,0.527541,-9.090388,0.755811,132.974609,-81.747421,225.793442
941,234417691,-21.502655,14.655911,106.738731,-9.564473,-21.309570,6.263798,82.894562,-108.376907,239.782623
942,234434358,-22.372654,13.629913,109.974236,-7.020196,-17.231613,2.999142,-100.510742,-127.507324,151.671478
943,234451025,-26.231831,12.272718,112.773750,-0.060073,-10.157177,-1.541047,-270.090637,-141.739517,115.720032
944,234467692,-30.177080,11.094351,115.587044,5.489697,-5.775950,-0.388710,-271.816132,-140.611237,112.267845
945,234484359,-32.447960,10.194767,118.989113,7.037475,-5.751870,1.082879,-174.891144,-150.548019,143.312881
946,234501026,-32.844543,9.513189,122.915199,6.788812,-4.597372,0.794291,-65.076859,-159.820282,173.303131
947,234517693,-32.054039,8.901503,127.039810,5.149669,-3.726156,1.800498,6.827799,-162.249268,186.377655
948,234534360,-31.061712,8.202470,131.162399,2.744234,-4.578072,2.576705,21.733541,-163.976624,186.398346
949,234551027,-30.771454,7.228433,135.083832,1.150707,-5.011591,2.650349,-15.200262,-170.160812,169.916519
950,234567694,-31.280598,5.957267,138.771332,0.870689,-3.249273,1.554087,-56.991966,-178.877090,148.946152
951,234584361,-32.109665,4.556803,142.268478,1.492841,-1.040975,-0.055333,-70.296661,-183.035675,136.066666
952,234601028,-32.802559,3.091852,145.697922,2.062562,0.051812,0.097390,-56.554657,-186.009689,128.282211
953,234617695,-33.329433,1.621902,149.167999,1.469617,0.394233,-0.261384,-41.274651,-187.637299,126.137833
954,234634362,-33.778275,0.269145,152.681320,-0.166586,0.766111,-0.831627,-31.523235,-184.354126,130.714233
955,234651029,-34.189472,-0.862728,156.176208,-0.040438,1.524314,-1.447795,-24.716343,-173.727722,135.849136
956,234667696,-34.445560,-1.830018,159.596039,0.982174,5.667592,-1.259816,-11.686379,-163.779175,136.648209
957,234684363,-34.190269,-2.642417,162.870819,0.057661,9.946352,-1.189682,21.841713,-151.135574,134.634552
958,234701030,-33.027718,-3.192580,165.906433,0.323254,14.265666,-1.866046,77.898071,-128.350876,133.193054
959,234717697,-31.011555,-3.647845,168.746353,-0.478913,16.886095,-1.552369,130.050125,-113.506767,129.724213
960,234734364,-28.060398,-4.364223,170.429718,-1.041139,15.051507,-2.618468,183.113937,-87.218376,66.480659
961,234751031,-26.115158,-4.964005,170.857269,-2.893116,6.455049,-3.796332,117.862648,-43.815819,6.387850
962,234767698,-26.601215,-5.117921,170.486801,-2.542840,5.728431,-3.307745,-32.024632,1.438065,-23.920616
963,234784365,-27.971909,-5.115745,169.495743,0.276998,8.242887,-1.296375,-88.427101,27.166090,-52.553890
964,234801032,-28.490379,-5.228556,168.096619,0.324258,5.395993,-0.631755,-39.521286,33.490124,-76.839119
965,234817699,-28.485060,-5.336977,166.776611,-2.023126,-1.362581,-0.952833,-7.796102,31.810123,-72.394791
966,234834366,-28.714983,-5.296987,165.808563,-3.329331,-3.673702,-0.712895,-20.006380,29.710182,-49.600182
967,234851033,-28.979223,-5.158231,165.214859,-2.943193,-1.314554,-0.392753,-19.946665,24.336967,-27.022699
968,234867700,-28.903702,-5.044387,164.895126,-2.381299,0.160133,-0.524969,1.971508,15.163285,-13.376596
969,234884367,-28.748369,-4.964997,164.760132,-2.159464,0.191309,-0.357059,7.756330,8.012034,-4.727965
970,234901034,-28.787117,-4.869416,164.727020,-1.567041,0.531603,-0.180375,-3.353279,5.936544,1.073934
971,234917701,-28.961290,-4.778183,164.717957,-0.824774,1.184144,-0.123288,-11.353756,5.018228,2.221755
972,234934368,-29.165287,-4.685534,164.695175,-0.546498,1.278217,-0.319942,-13.206684,5.488600,1.564348
973,234951035,-29.431814,-4.562704,164.664322,-0.535854,0.944481,-0.627641,-16.991165,7.301529,2.053661
974,234967702,-29.738787,-4.437367,164.615372,-0.373954,0.819115,-0.560230,-19.494984,7.959421,1.225089
975,234984369,-29.988804,-4.343738,164.560501,-0.128714,0.276790,-0.179194,-16.097063,6.483728,0.008817
976,235001036,-30.217598,-4.300150,164.530899,0.230319,-0.291146,0.034035,-14.704786,3.128843,-0.160745
977,235017703,-30.418247,-4.299505,164.509384,0.200250,-0.158663,-0.237896,-12.980393,0.660469,-1.032641
978,235034370,-30.549463,-4.322891,164.500443,0.159844,-0.023359,-0.468853,-8.758650,-0.960950,-1.114562
979,235051037,-30.600857,-4.369856,164.488770,0.107312,0.162120,-0.574752,-3.982404,-2.094146,-1.977083
980,235067704,-30.635061,-4.398475,164.478394,-0.141700,-0.050592,-0.559559,-2.945127,-1.185151,-1.350967
981,235084371,-30.778311,-4.414587,164.470520,-0.160946,0.125293,-0.626980,-9.477174,-0.613565,-0.840109
982,235101038,-30.926847,-4.435062,164.434204,-0.093850,0.753007,-0.590207,-9.926615,0.037234,-2.435845
983,235117705,-30.994596,-4.439406,164.364044,0.129307,0.583725,-0.569545,-5.233212,1.915209,-3.674142
984,235134372,-31.000204,-4.428848,164.287949,0.034584,0.362744,-0.641824,-1.531114,2.866785,-3.515663
985,235151039,-30.956774,-4.408938,164.201004,-0.007687,0.151278,-0.470048,1.364318,3.681563,-3.784699
986,235167706,-30.929808,-4.386606,164.121216,-0.004317,0.131625,-0.251922,0.411538,3.584337,-3.344916
987,235184373,-30.891369,-4.383068,164.040222,-0.168422,0.335856,-0.426152,1.095948,2.652048,-3.987680
988,235201040,-30.864536,-4.388568,163.958511,-0.243894,0.040149,-0.555865,0.396811,2.207578,-4.303780
989,235217707,-30.918791,-4.388690,163.898010,-0.216174,-0.167515,-0.300212,-4.372190,1.835310,-3.048232
990,235234374,-30.986038,-4.395076,163.846283,-0.007223,0.144855,-0.256839,-5.112565,1.247166,-2.788954
991,235251041,-30.970331,-4.426180,163.813599,-0.034027,0.398319,-0.234049,-0.048639,-0.608980,-2.575011
992,235267708,-30.894571,-4.477162,163.797501,-0.171142,0.358721,-0.359331,3.632860,-2.143744,-2.336006
993,235284375,-30.811001,-4.529264,163.776947,-0.417107,-0.024015,-0.477656,4.079380,-2.066650,-2.595566
994,235301042,-30.843445,-4.574745,163.755127,-0.079080,-0.299258,-0.345824,-2.888831,-1.686699,-2.455028
995,235317709,-30.943172,-4.615593,163.733734,0.043770,0.101813,-0.296247,-6.926521,-1.458093,-2.292645
996,235334376,-30.976650,-4.655600,163.713120,0.092829,0.365184,-0.435650,-2.949354,-1.436207,-2.227562
997,235351043,-30.945398,-4.689484,163.696442,-0.021487,0.206035,-0.444911,0.954118,-1.241896,-1.836956
998,235367710,-30.928537,-4.728409,163.681351,-0.049475,0.075836,-0.357472,0.099038,-1.550375,-1.910720
999,235384377,-30.949736,-4.762648,163.658768,-0.110743,0.023551,-0.344128,-2.223041,-1.078858,-2.149443
1000,235401044,-31.037804,-4.786674,163.628036,-0.083678,-0.092288,-0.468480,-6.276431,-0.299976,-2.252458
1001,235417711,-31.151421,-4.791463,163.601517,-0.006737,0.006669,-0.483304,-7.789912,0.562999,-1.441573
1002,235434378,-31.235920,-4.793246,163.587860,0.117053,0.121141,-0.314858,-5.979542,0.321868,-0.688969
1003,235451045,-31.260384,-4.805014,163.580444,0.046101,0.231028,-0.366204,-2.344407,-0.383960,-0.679979
1004,235467712,-31.249123,-4.830074,163.575729,-0.080810,0.205462,-0.496875,-0.188241,-1.148435,-0.956865
1005,235484379,-31.277906,-4.852690,163.563858,-0.181638,-0.005549,-0.535910,-2.625827,-0.800909,-1.245046
1006,235501046,-31.353697,-4.895342,163.531662,-0.022942,0.093895,-0.447641,-5.551707,-1.194179,-2.908655
1007,235517713,-31.390024,-4.942147,163.487640,0.002854,0.293044,-0.402921,-3.246026,-1.036290,-3.642101
1008,235534380,-31.383558,-5.000399,163.443665,-0.008182,0.201220,-0.501992,-0.679377,-1.622334,-3.997912
1009,235551047,-31.369970,-5.054481,163.408066,-0.156176,-0.043401,-0.500957,-0.210677,-1.669308,-3.439965
1010,235567714,-31.373846,-5.102670,163.386902,-0.175443,0.009755,-0.518251,-1.183589,-1.816632,-2.518714
1011,235584381,-31.363037,-5.142107,163.369751,-0.249386,0.166123,-0.538198,-0.282969,-1.492657,-2.039629
1012,235601048,-31.348944,-5.166934,163.353149,-0.263999,0.058768,-0.501109,-0.083357,-0.760057,-1.555165
1013,235617715,-31.353563,-5.188779,163.329788,-0.138372,0.030346,-0.396911,-1.243971,-0.396600,-1.805708
1014,235634382,-31.341820,-5.209465,163.309464,-0.040224,-0.016694,-0.335851,-0.246740,-0.431561,-1.613280
1015,235651049,-31.330963,-5.229730,163.303329,-0.126300,-0.166933,-0.384613,-0.222241,-0.850739,-0.876582
1016,235667716,-31.349079,-5.245153,163.322296,-0.170905,-0.181095,-0.363932,-1.825955,-1.382458,0.556263
1017,235684383,-31.395689,-5.257841,163.355759,-0.160537,-0.041586,-0.268962,-3.455640,-1.693076,1.380441
1018,235701050,-31.451117,-5.272806,163.397339,-0.130137,-0.023563,-0.289714,-3.940629,-2.062373,1.720680
1019,235717717,-31.515917,-5.304813,163.435043,0.017955,0.064814,-0.243866,-4.524637,-2.815668,0.989336
1020,235734384,-31.535944,-5.349197,163.457596,0.054077,0.282836,-0.240567,-1.920850,-2.975735,-0.173603
1021,235751051,-31.532747,-5.390601,163.473465,-0.027056,0.069569,-0.409945,-0.563646,-2.614109,-0.421086
1022,235767718,-31.567469,-5.420360,163.495316,-0.112823,-0.063457,-0.493939,-2.804168,-2.204946,0.247694
1023,235784385,-31.621901,-5.436839,163.518051,-0.085569,0.142513,-0.501633,-3.981610,-1.554422,0.709952
1024,235801052,-31.653784,-5.455584,163.532791,-0.146570,0.255205,-0.530557,-2.673313,-1.419213,0.230162
1025,235817719,-31.648464,-5.479929,163.531738,-0.162101,0.200243,-0.487309,-0.531451,-1.209457,-0.748659
1026,235834386,-31.625122,-5.508772,163.507111,-0.112614,0.086226,-0.466531,0.414650,-0.699880,-2.088793
1027,235851053,-31.607456,-5.519955,163.478195,-0.241738,0.023433,-0.600048,0.049567,0.336224,-1.750244
1028,235867720,-31.608801,-5.499337,163.457275,-0.235127,0.028780,-0.573668,-1.045907,1.711793,-0.343402
1029,235884387,-31.624794,-5.461881,163.440475,-0.256190,0.054357,-0.461482,-1.901231,2.443701,0.397144
1030,235901054,-31.629852,-5.424532,163.423019,-0.179778,0.198838,-0.419839,-1.248312,2.459978,0.360761
1031,235917721,-31.589558,-5.391690,163.404877,-0.188154,0.222712,-0.459975,1.469202,2.251849,0.184431
1032,235934388,-31.545614,-5.367138,163.395599,-0.114171,-0.027600,-0.459137,1.739147,1.551585,0.374618
1033,235951055,-31.523623,-5.343635,163.398071,-0.100022,-0.331275,-0.295620,0.488402,1.131806,0.938520
1034,235967722,-31.534027,-5.322735,163.415222,-0.007087,-0.197074,-0.250976,-1.376119,0.539730,1.604924
1035,235984389,-31.531149,-5.309169,163.449631,0.015728,-0.001096,-0.291751,-0.483837,-0.374266,2.252439
1036,236001056,-31.494690,-5.311404,163.488617,0.013248,0.072416,-0.337233,1.554659,-1.325176,1.991125
1037,236017723,-31.458035,-5.323814,163.528442,-0.022068,-0.006221,-0.348374,1.571999,-1.871264,1.716685
1038,236034390,-31.456789,-5.345364,163.560089,-0.039878,-0.032450,-0.343592,-0.598236,-2.082620,1.012925
1039,236051057,-31.469881,-5.374072,163.574356,0.015668,0.142442,-0.347536,-1.555382,-1.907685,-0.095868
1040,236067724,-31.462877,-5.407357,163.582138,0.062359,0.150481,-0.435415,-0.385830,-1.939124,-0.570267
1041,236084391,-31.441534,-5.439722,163.579712,0.056946,0.122678,-0.494258,0.418262,-1.573977,-1.061915
1042,236101058,-31.416378,-5.467593,163.564087,-0.005053,0.112101,-0.459888,0.570734,-0.933186,-1.593302
1043,236117725,-31.388742,-5.493821,163.538834,-0.030038,0.124365,-0.456498,0.664003,-0.550916,-2.030959
1044,236134392,-31.361914,-5.518570,163.511063,-0.060865,-0.097905,-0.427478,0.600893,-0.396818,-2.113880